,iterationName,gameID,trialNum,trialStartTime,submitTime,clickedTime,confirmTime,totalTrialDuration,PT,RT,cardinality,clicked,correct,score,symbols,symbolsProcess,targetLoc,d1,d2,messageLength,tokenRatio
0,run1,6505-1441f682-c593-4bdf-ba56-86382ce58058,1,1639593130063.0,1639593140030.0,1639593148505.0,1639593153259.0,23.196,9.967,13.229,16,16,True,0,[2],1639593139073:2,3,15,14,1,0.0625
1,run1,0577-d0f9764e-a392-49e8-ad05-34cfb0c92275,1,1639593105318.0,1639593158290.0,1639593163708.0,1639593165628.0,60.31,52.972,7.338,15,15,True,0,[3],"1639593131305:3,1639593134203:del,1639593144929:3,1639593151264:1,1639593156527:del",2,14,16,1,0.06666666666666667
2,run1,0100-0250f292-3528-41a0-9ef3-f871d00ec234,1,1639593161655.0,1639593166285.0,1639593171090.0,1639593172616.0,10.961,4.63,6.331,1,1,True,0,[1],1639593164986:1,3,3,2,1,1.0
3,run1,3639-b70f8243-5ebf-4ded-a53e-f4027dad69c2,1,1639593156491.0,1639593168366.0,1639593172997.0,1639593175657.0,19.166,11.875,7.291,2,2,True,0,[2],1639593164419:2,1,3,4,1,0.5
4,run1,6505-1441f682-c593-4bdf-ba56-86382ce58058,2,1639593155267.0,1639593171957.0,1639593183640.0,1639593185354.0,30.087,16.69,13.397,10,10,True,3,"[3, 4, 2]","1639593164161:3,1639593164942:4,1639593170378:2",2,8,9,3,0.3
5,run1,0577-d0f9764e-a392-49e8-ad05-34cfb0c92275,2,1639593167651.0,1639593173418.0,1639593176999.0,1639593178339.0,10.688,5.767,4.921,2,3,False,3,[2],1639593171465:2,3,3,1,1,0.5
6,run1,0100-0250f292-3528-41a0-9ef3-f871d00ec234,2,1639593174620.0,1639593184650.0,1639593191464.0,1639593192376.0,17.756,10.03,7.726,6,6,True,3,"[4, 2]","1639593179884:4,1639593180975:2",2,5,7,2,0.3333333333333333
7,run1,3639-b70f8243-5ebf-4ded-a53e-f4027dad69c2,2,1639593177665.0,1639593189600.0,1639593193097.0,1639593195197.0,17.532,11.935,5.597,1,1,True,3,[1],1639593186588:1,1,3,2,1,1.0
8,run1,9405-503c0c48-b1d9-49d8-9da2-86a208ab837c,1,1639593174665.0,1639593194693.0,1639593202574.0,1639593204366.0,29.701,20.028,9.673,7,7,True,0,"[3, 3, 1]","1639593186141:3,1639593186790:3,1639593187990:1",3,9,8,3,0.42857142857142855
9,run1,6505-1441f682-c593-4bdf-ba56-86382ce58058,3,1639593187356.0,1639593194949.0,1639593204316.0,1639593206043.0,18.687,7.593,11.094,13,15,False,6,"[2, 3]","1639593191201:2,1639593193362:3",2,14,15,2,0.15384615384615385
10,run1,0109-d3e47dfb-f202-4c77-8950-a58d3d313e5e,1,1639593182008.0,1639593197640.0,1639593216421.0,1639593226541.0,44.533,15.632,28.901,12,12,True,0,[3],1639593202735:3,3,10,11,1,0.08333333333333333
11,run1,0100-0250f292-3528-41a0-9ef3-f871d00ec234,3,1639593194378.0,1639593203727.0,1639593215714.0,1639593217138.0,22.76,9.349,13.411,5,5,True,6,"[2, 3]","1639593199597:2,1639593199925:3",2,6,4,2,0.4
12,run1,0577-d0f9764e-a392-49e8-ad05-34cfb0c92275,3,1639593180350.0,1639593203766.0,1639593206599.0,1639593224309.0,43.959,23.416,20.543,8,7,False,3,[2],1639593198138:2,2,9,7,1,0.125
13,run1,3639-b70f8243-5ebf-4ded-a53e-f4027dad69c2,3,1639593197206.0,1639593206686.0,1639593212077.0,1639593213777.0,16.571,9.48,7.091,9,9,True,6,[4],1639593205371:4,2,8,10,1,0.1111111111111111
14,run1,5157-3d1a9fad-c10e-4a00-8c24-a22868d60b2d,1,1639593192740.0,1639593214427.0,1639593247411.0,1639593249670.0,56.93,21.687,35.243,12,13,False,0,"[4, 2, 1, 1, 1, 2, 2]","1639593078658:4,1639593081350:2,1639593084971:1,1639593085862:1,1639593087285:1,1639593088129:2,1639593088879:2",3,11,13,7,0.5833333333333334
15,run1,6505-1441f682-c593-4bdf-ba56-86382ce58058,4,1639593208051.0,1639593218099.0,1639593226445.0,1639593228668.0,20.617,10.048,10.569,6,4,False,6,"[2, 2]","1639593216628:2,1639593216865:2",1,5,4,2,0.3333333333333333
16,run1,9838-da3885e8-773a-4253-8229-bd28dd512256,1,1639593214908.0,1639593225976.0,1639593234275.0,1639593235750.0,20.842,11.068,9.774,10,10,True,0,"[4, 4, 2]","1639593225025:4,1639593225886:4,1639593226342:2",1,11,9,3,0.3
17,run1,3639-b70f8243-5ebf-4ded-a53e-f4027dad69c2,4,1639593215779.0,1639593227670.0,1639593233537.0,1639593235297.0,19.518,11.891,7.627,7,9,False,9,"[4, 4, 4]","1639593225977:4,1639593226345:4,1639593226689:4",3,9,8,3,0.42857142857142855
18,run1,9838-da3885e8-773a-4253-8229-bd28dd512256,2,1639593237755.0,1639593241824.0,1639593243781.0,1639593244902.0,7.147,4.069,3.078,1,1,True,3,[1],1639593242194:1,2,2,3,1,1.0
19,run1,6505-1441f682-c593-4bdf-ba56-86382ce58058,5,1639593230674.0,1639593242368.0,1639593251504.0,1639593253341.0,22.667,11.694,10.973,7,8,False,6,"[3, 1, 1, 2]","1639593238618:3,1639593239365:1,1639593240272:1,1639593240987:2",3,6,8,4,0.5714285714285714
20,run1,3639-b70f8243-5ebf-4ded-a53e-f4027dad69c2,5,1639593237298.0,1639593243742.0,1639593248736.0,1639593250447.0,13.149,6.444,6.705,16,16,True,9,"[4, 4, 4]","1639593241913:4,1639593242449:4,1639593242817:4",3,14,15,3,0.1875
21,run1,0109-d3e47dfb-f202-4c77-8950-a58d3d313e5e,2,1639593228549.0,1639593245537.0,1639593298660.0,1639593300142.0,71.593,16.988,54.605,14,16,False,3,[2],1639593251466:2,3,15,16,1,0.07142857142857142
22,run1,9405-503c0c48-b1d9-49d8-9da2-86a208ab837c,2,1639593206370.0,1639593249409.0,1639593257625.0,1639593259349.0,52.979,43.039,9.94,12,12,True,3,"[1, 3, 2, 4, 2]","1639593232756:1,1639593240213:3,1639593241387:2,1639593242892:4,1639593244509:2",3,13,11,5,0.4166666666666667
23,run1,0577-d0f9764e-a392-49e8-ad05-34cfb0c92275,4,1639593226310.0,1639593249638.0,1639593258628.0,1639593269478.0,43.168,23.328,19.84,16,15,False,3,"[1, 4]","1639593244606:1,1639593247968:4",1,14,15,2,0.125
24,run1,9838-da3885e8-773a-4253-8229-bd28dd512256,3,1639593246904.0,1639593252251.0,1639593256837.0,1639593257718.0,10.814,5.347,5.467,6,6,True,6,"[3, 3]","1639593252890:3,1639593253155:3",1,8,7,2,0.3333333333333333
25,run1,9549-c1f18c59-6c49-47ae-8896-f452feff6da5,1,1639593240787.0,1639593254830.0,1639593272226.0,1639593273519.0,32.732,14.043,18.689,9,10,False,0,[3],1639593255345:3,2,8,10,1,0.1111111111111111
26,run1,3639-b70f8243-5ebf-4ded-a53e-f4027dad69c2,6,1639593252465.0,1639593258317.0,1639593261817.0,1639593263577.0,11.112,5.852,5.26,4,6,False,12,"[4, 4]","1639593257152:4,1639593257384:4",2,5,6,2,0.5
27,run1,5157-3d1a9fad-c10e-4a00-8c24-a22868d60b2d,2,1639593251676.0,1639593261713.0,1639593268698.0,1639593270553.0,18.877,10.037,8.84,4,4,True,0,"[2, 1, 1]","1639593133556:2,1639593135350:1,1639593135808:1",2,3,2,3,0.75
28,run1,9838-da3885e8-773a-4253-8229-bd28dd512256,4,1639593259721.0,1639593265080.0,1639593267583.0,1639593269048.0,9.327,5.359,3.968,4,4,True,9,"[2, 2]","1639593265845:2,1639593266018:2",2,3,2,2,0.5
29,run1,3639-b70f8243-5ebf-4ded-a53e-f4027dad69c2,7,1639593265587.0,1639593269561.0,1639593275417.0,1639593276919.0,11.332,3.974,7.358,6,6,True,12,"[4, 4]","1639593268361:4,1639593268545:4",2,8,7,2,0.3333333333333333
30,run1,6505-1441f682-c593-4bdf-ba56-86382ce58058,6,1639593255344.0,1639593274414.0,1639593283147.0,1639593284495.0,29.151,19.07,10.081,15,14,False,6,"[2, 4, 2, 2, 2, 1, 3]","1639593265641:2,1639593267751:4,1639593268836:2,1639593269662:2,1639593270608:2,1639593271435:1,1639593273001:3",1,16,14,7,0.4666666666666667
31,run1,0100-0250f292-3528-41a0-9ef3-f871d00ec234,4,1639593219141.0,1639593274773.0,1639593301842.0,1639593302922.0,83.781,55.632,28.149,15,15,True,9,"[4, 1, 4, 1, 4, 1]","1639593223750:4,1639593226681:4,1639593237011:1,1639593241186:4,1639593241676:1,1639593243251:1,1639593244329:4,1639593250403:del,1639593251808:del,1639593251941:del,1639593252061:del,1639593252186:del,1639593252323:del,1639593252464:del,1639593253055:4,1639593253584:1,1639593254937:4,1639593255557:1,1639593256101:4,1639593256747:1,1639593264506:1,1639593273633:del",2,16,14,6,0.4
32,run1,1910-999a012a-2df3-407f-9195-0d3ab6383c75,1,1639593253483.0,1639593279523.0,1639593259921.0,1639593287674.0,34.191,26.04,8.151,15,16,False,0,"[3, 4]","1639593264595:3,1639593278611:4",1,16,14,2,0.13333333333333333
33,run1,9405-503c0c48-b1d9-49d8-9da2-86a208ab837c,3,1639593261352.0,1639593281290.0,1639593292497.0,1639593293785.0,32.433,19.938,12.495,9,9,True,6,"[1, 3, 4, 1]","1639593270075:1,1639593276367:3,1639593277243:4,1639593278490:1",2,10,11,4,0.4444444444444444
34,run1,3639-b70f8243-5ebf-4ded-a53e-f4027dad69c2,8,1639593278926.0,1639593283723.0,1639593286877.0,1639593288397.0,9.471,4.797,4.674,14,12,False,15,[4],1639593281945:4,1,12,13,1,0.07142857142857142
35,run1,9838-da3885e8-773a-4253-8229-bd28dd512256,5,1639593271053.0,1639593287964.0,1639593294184.0,1639593296540.0,25.487,16.911,8.576,15,15,True,12,"[4, 4, 4, 3]","1639593285533:4,1639593286019:4,1639593288125:4,1639593288762:3",3,16,14,4,0.26666666666666666
36,run1,0577-d0f9764e-a392-49e8-ad05-34cfb0c92275,5,1639593271484.0,1639593288244.0,1639593297348.0,1639593299334.0,27.85,16.76,11.09,14,14,True,3,[2],1639593285428:2,1,16,15,1,0.07142857142857142
37,run1,5157-3d1a9fad-c10e-4a00-8c24-a22868d60b2d,3,1639593272558.0,1639593289649.0,1639593295388.0,1639593297117.0,24.559,17.091,7.468,5,5,True,3,"[1, 1, 2, 1]","1639593161012:1,1639593162313:1,1639593163157:2,1639593163815:1",1,4,3,4,0.8
38,run1,9549-c1f18c59-6c49-47ae-8896-f452feff6da5,2,1639593275531.0,1639593289675.0,1639593295106.0,1639593296531.0,21.0,14.144,6.856,16,14,False,0,[4],1639593290156:4,1,15,14,1,0.0625
39,run1,6505-1441f682-c593-4bdf-ba56-86382ce58058,7,1639593286502.0,1639593291828.0,1639593295049.0,1639593296097.0,9.595,5.326,4.269,1,1,True,6,[1],1639593290413:1,2,2,3,1,1.0
40,run1,1910-999a012a-2df3-407f-9195-0d3ab6383c75,2,1639593289682.0,1639593297806.0,1639593301711.0,1639593302727.0,13.045,8.124,4.921,5,4,False,0,"[3, 3, 3]","1639593296499:3,1639593296898:3,1639593297226:3",3,4,6,3,0.6
41,run1,4980-5c8ed6af-41f5-4cdb-a5b1-02ad7374d5e0,1,1639593268387.0,1639593298415.0,1639593311469.0,1639593318183.0,49.796,30.028,19.768,6,7,False,0,"[1, 4, 2]","1639593285442:4,1639593291181:1,1639593294336:del,1639593294793:del,1639593296513:1,1639593298071:4,1639593299444:3,1639593302181:del,1639593303944:2",2,7,5,3,0.5
42,run1,3639-b70f8243-5ebf-4ded-a53e-f4027dad69c2,9,1639593290398.0,1639593299422.0,1639593305398.0,1639593306817.0,16.419,9.024,7.395,5,5,True,15,"[4, 4, 4]","1639593296480:4,1639593296769:4,1639593297081:4",3,4,3,3,0.6
43,run1,6180-111bc9d5-f170-42d4-b25b-5a553e7d53f4,1,1639593283487.0,1639593302033.0,1639593365055.0,1639593387688.0,104.201,18.546,85.655,11,13,False,0,"[4, 4, 2]","1639593293949:4,1639593294596:4,1639593298084:2",2,13,12,3,0.2727272727272727
44,run1,9549-c1f18c59-6c49-47ae-8896-f452feff6da5,3,1639593298534.0,1639593304789.0,1639593309781.0,1639593310682.0,12.148,6.255,5.893,2,2,True,0,[2],1639593304726:2,3,1,3,1,0.5
45,run1,9405-503c0c48-b1d9-49d8-9da2-86a208ab837c,4,1639593295788.0,1639593306351.0,1639593311237.0,1639593312225.0,16.437,10.563,5.874,6,6,True,9,"[2, 2, 2]","1639593305762:2,1639593305980:2,1639593306256:2",2,5,7,3,0.5
46,run1,6505-1441f682-c593-4bdf-ba56-86382ce58058,8,1639593298106.0,1639593308029.0,1639593317105.0,1639593318299.0,20.193,9.923,10.27,9,9,True,9,"[1, 1, 1, 3, 1, 1, 1]","1639593303276:1,1639593304241:1,1639593304687:1,1639593305772:3,1639593306466:1,1639593306786:1,1639593306977:1",3,10,8,7,0.7777777777777778
47,run1,9838-da3885e8-773a-4253-8229-bd28dd512256,6,1639593298541.0,1639593308693.0,1639593312960.0,1639593313853.0,15.312,10.152,5.16,11,11,True,15,"[4, 4, 3]","1639593307619:4,1639593307995:4,1639593309566:3",3,10,12,3,0.2727272727272727
48,run1,0100-0250f292-3528-41a0-9ef3-f871d00ec234,5,1639593304924.0,1639593309026.0,1639593311618.0,1639593313412.0,8.488,4.102,4.386,2,2,True,12,[2],1639593307935:2,3,1,3,1,0.5
49,run1,1910-999a012a-2df3-407f-9195-0d3ab6383c75,3,1639593304734.0,1639593309636.0,1639593311668.0,1639593312333.0,7.599,4.902,2.697,2,3,False,0,"[3, 3, 3]","1639593308559:3,1639593308849:3,1639593309108:3",3,3,1,3,1.5
50,run1,0577-d0f9764e-a392-49e8-ad05-34cfb0c92275,6,1639593301344.0,1639593311770.0,1639593317437.0,1639593319898.0,18.554,10.426,8.128,5,5,True,6,[3],1639593309464:3,2,4,6,1,0.2
51,run1,3639-b70f8243-5ebf-4ded-a53e-f4027dad69c2,10,1639593308818.0,1639593313579.0,1639593320057.0,1639593321938.0,13.12,4.761,8.359,15,14,False,18,[4],1639593311368:4,1,16,14,1,0.06666666666666667
52,run1,1910-999a012a-2df3-407f-9195-0d3ab6383c75,4,1639593314337.0,1639593318141.0,1639593319931.0,1639593320621.0,6.284,3.804,2.48,14,13,False,0,[3],1639593317843:3,1,15,13,1,0.07142857142857142
53,run1,9838-da3885e8-773a-4253-8229-bd28dd512256,7,1639593315855.0,1639593319317.0,1639593321300.0,1639593322182.0,6.327,3.462,2.865,3,3,True,18,[3],1639593320153:3,1,5,4,1,0.3333333333333333
54,run1,5157-3d1a9fad-c10e-4a00-8c24-a22868d60b2d,4,1639593299121.0,1639593319585.0,1639593336052.0,1639593337475.0,38.354,20.464,17.89,10,10,True,6,"[1, 1, 3, 2, 1, 2]","1639593184813:1,1639593186724:1,1639593189307:3,1639593190656:2,1639593191832:1,1639593192645:2",2,11,12,6,0.6
55,run1,9549-c1f18c59-6c49-47ae-8896-f452feff6da5,4,1639593312687.0,1639593320995.0,1639593325663.0,1639593326882.0,14.195,8.308,5.887,13,11,False,3,[3],1639593321468:3,3,12,11,1,0.07692307692307693
56,run1,9405-503c0c48-b1d9-49d8-9da2-86a208ab837c,5,1639593314230.0,1639593321092.0,1639593324389.0,1639593325514.0,11.284,6.862,4.422,2,2,True,12,[2],1639593319501:2,3,4,3,1,0.5
57,run1,6505-1441f682-c593-4bdf-ba56-86382ce58058,9,1639593320305.0,1639593326184.0,1639593329846.0,1639593331083.0,10.778,5.879,4.899,3,3,True,12,"[1, 1, 1]","1639593324926:1,1639593325125:1,1639593325290:1",1,4,5,3,1.0
58,run1,1910-999a012a-2df3-407f-9195-0d3ab6383c75,5,1639593322626.0,1639593326829.0,1639593328213.0,1639593328913.0,6.287,4.203,2.084,12,11,False,0,[3],1639593326462:3,1,11,13,1,0.08333333333333333
59,run1,9838-da3885e8-773a-4253-8229-bd28dd512256,8,1639593324184.0,1639593329516.0,1639593332575.0,1639593333458.0,9.274,5.332,3.942,5,5,True,21,"[4, 1]","1639593329871:4,1639593330400:1",3,4,6,2,0.4
60,run1,0577-d0f9764e-a392-49e8-ad05-34cfb0c92275,7,1639593321908.0,1639593330619.0,1639593337223.0,1639593339308.0,17.4,8.711,8.689,6,6,True,9,[4],1639593326241:4,3,4,5,1,0.16666666666666666
61,run1,0109-d3e47dfb-f202-4c77-8950-a58d3d313e5e,3,1639593302144.0,1639593333119.0,1639593339441.0,1639593341342.0,39.198,30.975,8.223,13,13,True,3,[1],1639593340025:1,3,12,11,1,0.07692307692307693
62,run1,1910-999a012a-2df3-407f-9195-0d3ab6383c75,6,1639593330917.0,1639593335691.0,1639593337209.0,1639593337733.0,6.816,4.774,2.042,6,5,False,0,"[3, 3, 3]","1639593334819:3,1639593335006:3,1639593335172:3",3,7,5,3,0.5
63,run1,9549-c1f18c59-6c49-47ae-8896-f452feff6da5,5,1639593328885.0,1639593335830.0,1639593339441.0,1639593340454.0,11.569,6.945,4.624,3,3,True,3,[3],1639593335750:3,3,5,4,1,0.3333333333333333
64,run1,3639-b70f8243-5ebf-4ded-a53e-f4027dad69c2,11,1639593323946.0,1639593336980.0,1639593345456.0,1639593347117.0,23.171,13.034,10.137,3,4,False,18,[3],"1639593326576:4,1639593330772:del,1639593335579:3",1,4,5,1,0.3333333333333333
65,run1,2515-ce45844d-b4fd-4433-9d4f-5244bcd8c2b1,1,1639593323317.0,1639593339479.0,1639593347610.0,1639593352987.0,29.67,16.162,13.508,14,12,False,0,[1],1639593333119:1,2,12,13,1,0.07142857142857142
66,run1,6505-1441f682-c593-4bdf-ba56-86382ce58058,10,1639593333092.0,1639593340382.0,1639593342939.0,1639593344416.0,11.324,7.29,4.034,4,4,True,15,"[1, 1, 1, 1]","1639593338222:1,1639593338753:1,1639593339062:1,1639593339348:1",2,3,5,4,1.0
67,run1,0100-0250f292-3528-41a0-9ef3-f871d00ec234,6,1639593315414.0,1639593342099.0,1639593353077.0,1639593353724.0,38.31,26.685,11.625,12,12,True,15,"[4, 4, 4]","1639593327335:4,1639593327649:4,1639593328239:4",3,13,14,3,0.25
68,run1,4980-5c8ed6af-41f5-4cdb-a5b1-02ad7374d5e0,2,1639593320187.0,1639593344145.0,1639593368466.0,1639593369381.0,49.194,23.958,25.236,9,10,False,0,"[1, 2, 4]","1639593348849:1,1639593349462:2,1639593350227:4",3,10,8,3,0.3333333333333333
69,run1,9838-da3885e8-773a-4253-8229-bd28dd512256,9,1639593335461.0,1639593344353.0,1639593348286.0,1639593349231.0,13.77,8.892,4.878,7,7,True,24,"[3, 3, 1]","1639593344550:3,1639593344747:3,1639593345386:1",1,8,6,3,0.42857142857142855
70,run1,1910-999a012a-2df3-407f-9195-0d3ab6383c75,7,1639593339736.0,1639593345060.0,1639593350042.0,1639593350677.0,10.941,5.324,5.617,13,14,False,0,"[1, 1]","1639593344449:1,1639593344570:1",2,14,12,2,0.15384615384615385
71,run1,9405-503c0c48-b1d9-49d8-9da2-86a208ab837c,6,1639593327516.0,1639593345483.0,1639593356225.0,1639593357189.0,29.673,17.967,11.706,10,10,True,15,"[2, 3, 1, 3, 1]","1639593336444:2,1639593337559:3,1639593339652:1,1639593340977:3,1639593342228:1",2,8,9,5,0.5
72,run1,0577-d0f9764e-a392-49e8-ad05-34cfb0c92275,8,1639593341313.0,1639593347756.0,1639593361908.0,1639593367508.0,26.195,6.443,19.752,4,3,False,12,[3],1639593346135:3,2,3,5,1,0.25
73,run1,0109-d3e47dfb-f202-4c77-8950-a58d3d313e5e,4,1639593343344.0,1639593350832.0,1639593365361.0,1639593367101.0,23.757,7.488,16.269,2,3,False,6,[2],1639593357158:2,3,3,1,1,0.5
74,run1,9549-c1f18c59-6c49-47ae-8896-f452feff6da5,6,1639593342458.0,1639593354637.0,1639593361736.0,1639593363680.0,21.222,12.179,9.043,14,14,True,6,[4],1639593354833:4,2,12,13,1,0.07142857142857142
75,run1,1910-999a012a-2df3-407f-9195-0d3ab6383c75,8,1639593352681.0,1639593356407.0,1639593358800.0,1639593359382.0,6.701,3.726,2.975,4,3,False,0,[1],1639593355426:1,1,5,3,1,0.25
76,run1,3639-b70f8243-5ebf-4ded-a53e-f4027dad69c2,12,1639593349118.0,1639593356962.0,1639593362177.0,1639593363417.0,14.299,7.844,6.455,12,14,False,18,[4],1639593355594:4,1,14,13,1,0.08333333333333333
77,run1,9838-da3885e8-773a-4253-8229-bd28dd512256,10,1639593351234.0,1639593359770.0,1639593366619.0,1639593367508.0,16.274,8.536,7.738,12,12,True,27,"[4, 4, 4]","1639593360230:4,1639593360490:4,1639593360761:4",1,11,13,3,0.25
78,run1,5157-3d1a9fad-c10e-4a00-8c24-a22868d60b2d,5,1639593339478.0,1639593362956.0,1639593376116.0,1639593380547.0,41.069,23.478,17.591,11,11,True,9,"[3, 2, 2, 2, 2]","1639593222551:3,1639593225000:2,1639593226333:2,1639593229032:2,1639593229331:2",1,10,12,5,0.45454545454545453
79,run1,6505-1441f682-c593-4bdf-ba56-86382ce58058,11,1639593346424.0,1639593363570.0,1639593382800.0,1639593383812.0,37.388,17.146,20.242,14,14,True,18,"[1, 2, 3, 1, 2, 2, 1, 1, 1]","1639593355051:1,1639593355722:2,1639593357114:3,1639593357911:1,1639593358893:2,1639593360007:2,1639593362088:1,1639593362396:1,1639593362603:1",3,13,15,9,0.6428571428571429
80,run1,1910-999a012a-2df3-407f-9195-0d3ab6383c75,9,1639593361387.0,1639593366301.0,1639593367879.0,1639593368449.0,7.062,4.914,2.148,3,3,True,0,"[1, 1, 1]","1639593365548:1,1639593365716:1,1639593365944:1",2,2,1,3,1.0
81,run1,9405-503c0c48-b1d9-49d8-9da2-86a208ab837c,7,1639593359194.0,1639593368891.0,1639593371797.0,1639593372593.0,13.399,9.697,3.702,5,5,True,18,"[2, 3]","1639593365258:2,1639593366340:3",3,4,6,2,0.4
82,run1,0100-0250f292-3528-41a0-9ef3-f871d00ec234,7,1639593355727.0,1639593369860.0,1639593386045.0,1639593386749.0,31.022,14.133,16.889,13,13,True,18,"[4, 4, 3, 2]","1639593365510:4,1639593365792:4,1639593368330:3,1639593369050:2",2,12,14,4,0.3076923076923077
83,run1,3639-b70f8243-5ebf-4ded-a53e-f4027dad69c2,13,1639593365426.0,1639593371417.0,1639593376836.0,1639593378025.0,12.599,5.991,6.608,10,12,False,18,[4],1639593369969:4,1,12,11,1,0.1
84,run1,9549-c1f18c59-6c49-47ae-8896-f452feff6da5,7,1639593365684.0,1639593371776.0,1639593376336.0,1639593377336.0,11.652,6.092,5.56,4,4,True,9,[4],1639593371749:4,3,3,2,1,0.25
85,run1,2515-ce45844d-b4fd-4433-9d4f-5244bcd8c2b1,2,1639593354988.0,1639593372721.0,1639593387952.0,1639593389207.0,34.219,17.733,16.486,15,15,True,0,[2],1639593366384:2,2,16,14,1,0.06666666666666667
86,run1,9838-da3885e8-773a-4253-8229-bd28dd512256,11,1639593369510.0,1639593376376.0,1639593378905.0,1639593379831.0,10.321,6.866,3.455,8,8,True,30,"[4, 4]","1639593376763:4,1639593376944:4",1,7,9,2,0.25
87,run1,0089-84ef8c77-b491-4608-9f6f-f3b5bab1c2d8,1,1639593349674.0,1639593377793.0,1639593402156.0,1639593413723.0,64.049,28.119,35.93,8,8,True,0,[3],1639593363870:3,1,9,10,1,0.125
88,run1,0577-d0f9764e-a392-49e8-ad05-34cfb0c92275,9,1639593369519.0,1639593380704.0,1639593375528.0,1639593395803.0,26.284,11.185,15.099,13,14,False,12,[3],1639593379058:3,2,12,14,1,0.07692307692307693
89,run1,1910-999a012a-2df3-407f-9195-0d3ab6383c75,10,1639593370455.0,1639593382427.0,1639593389605.0,1639593390165.0,19.71,11.972,7.738,9,11,False,3,"[1, 1, 1, 4]","1639593377184:1,1639593377365:1,1639593377534:1,1639593382041:4",3,10,11,4,0.4444444444444444
90,run1,9549-c1f18c59-6c49-47ae-8896-f452feff6da5,8,1639593379341.0,1639593383546.0,1639593386796.0,1639593388413.0,9.072,4.205,4.867,1,1,True,12,[1],1639593384368:1,1,3,2,1,1.0
91,run1,0109-d3e47dfb-f202-4c77-8950-a58d3d313e5e,5,1639593369103.0,1639593386301.0,1639593394188.0,1639593395881.0,26.778,17.198,9.58,6,6,True,6,[2],1639593393905:2,2,8,7,1,0.16666666666666666
92,run1,4980-5c8ed6af-41f5-4cdb-a5b1-02ad7374d5e0,3,1639593371387.0,1639593386589.0,1639593400728.0,1639593401464.0,30.077,15.202,14.875,11,11,True,0,"[1, 4, 2]","1639593391521:1,1639593392716:4,1639593393372:2",2,9,10,3,0.2727272727272727
93,run1,5157-3d1a9fad-c10e-4a00-8c24-a22868d60b2d,6,1639593382553.0,1639593391302.0,1639593394589.0,1639593396377.0,13.824,8.749,5.075,3,3,True,12,"[1, 2]","1639593264086:1,1639593264865:2",3,4,2,2,0.6666666666666666
94,run1,9838-da3885e8-773a-4253-8229-bd28dd512256,12,1639593381841.0,1639593392167.0,1639593398299.0,1639593399771.0,17.93,10.326,7.604,14,14,True,33,"[4, 4, 4, 2]","1639593391315:4,1639593391576:4,1639593392678:4,1639593393142:2",1,13,15,4,0.2857142857142857
95,run1,6505-1441f682-c593-4bdf-ba56-86382ce58058,12,1639593385813.0,1639593393474.0,1639593403974.0,1639593405176.0,19.363,7.661,11.702,5,5,True,21,"[1, 3, 1]","1639593390624:1,1639593392059:3,1639593392666:1",1,6,4,3,0.6
96,run1,3639-b70f8243-5ebf-4ded-a53e-f4027dad69c2,14,1639593380028.0,1639593393520.0,1639593401697.0,1639593403156.0,23.128,13.492,9.636,13,13,True,18,"[4, 4]","1639593392201:4,1639593392377:4",2,14,15,2,0.15384615384615385
97,run1,1910-999a012a-2df3-407f-9195-0d3ab6383c75,11,1639593392169.0,1639593395848.0,1639593397123.0,1639593397711.0,5.542,3.679,1.863,1,1,True,3,[1],1639593395350:1,2,3,2,1,1.0
98,run1,9549-c1f18c59-6c49-47ae-8896-f452feff6da5,9,1639593390421.0,1639593397493.0,1639593403632.0,1639593404569.0,14.148,7.072,7.076,7,7,True,15,[2],1639593398013:2,1,5,6,1,0.14285714285714285
99,run1,9405-503c0c48-b1d9-49d8-9da2-86a208ab837c,8,1639593374594.0,1639593400149.0,1639593416677.0,1639593417973.0,43.379,25.555,17.824,16,16,True,21,"[2, 4, 3, 2, 2, 3]","1639593382313:2,1639593383442:4,1639593385129:3,1639593387174:2,1639593388350:2,1639593389626:3",3,14,15,6,0.375
100,run1,0100-0250f292-3528-41a0-9ef3-f871d00ec234,8,1639593388751.0,1639593404070.0,1639593411021.0,1639593416849.0,28.098,15.319,12.779,11,11,True,21,"[3, 3, 3, 2]","1639593396131:3,1639593396389:3,1639593396621:3,1639593402728:2",3,10,12,4,0.36363636363636365
101,run1,0577-d0f9764e-a392-49e8-ad05-34cfb0c92275,10,1639593397805.0,1639593404781.0,1639593420958.0,1639593422763.0,24.958,6.976,17.982,12,13,False,12,[3],1639593403105:3,1,13,11,1,0.08333333333333333
102,run1,5157-3d1a9fad-c10e-4a00-8c24-a22868d60b2d,7,1639593398382.0,1639593405582.0,1639593408273.0,1639593409930.0,11.548,7.2,4.348,2,2,True,15,"[1, 1]","1639593280265:1,1639593280549:1",2,4,3,2,1.0
103,run1,1910-999a012a-2df3-407f-9195-0d3ab6383c75,12,1639593399715.0,1639593405897.0,1639593409071.0,1639593409666.0,9.951,6.182,3.769,7,7,True,6,"[1, 1, 4]","1639593403369:1,1639593403497:1,1639593403871:4",3,9,8,3,0.42857142857142855
104,run1,6180-111bc9d5-f170-42d4-b25b-5a553e7d53f4,2,1639593389692.0,1639593406296.0,1639593428261.0,1639593429770.0,40.078,16.604,23.474,6,6,True,0,"[3, 3]","1639593398763:3,1639593398996:3",3,5,7,2,0.3333333333333333
105,run1,3639-b70f8243-5ebf-4ded-a53e-f4027dad69c2,15,1639593405165.0,1639593408912.0,1639593412057.0,1639593413637.0,8.472,3.747,4.725,8,10,False,21,"[4, 4]","1639593407570:4,1639593407746:4",2,9,10,2,0.25
106,run1,9838-da3885e8-773a-4253-8229-bd28dd512256,13,1639593401773.0,1639593409489.0,1639593418760.0,1639593419553.0,17.78,7.716,10.064,9,9,True,36,"[4, 4, 1]","1639593409415:4,1639593409533:4,1639593410277:1",1,11,10,3,0.3333333333333333
107,run1,0137-3e1d73a9-6a65-4327-b3c0-11f6af207c24,1,1639593378464.0,1639593409620.0,1639593448817.0,1639593450019.0,71.555,31.156,40.399,14,14,True,0,"[2, 2, 2, 2, 2, 2, 2]","1639593403332:2,1639593412159:2,1639593412633:2,1639593413069:2,1639593413523:2,1639593413937:2,1639593414389:2",2,15,13,7,0.5
108,run1,2515-ce45844d-b4fd-4433-9d4f-5244bcd8c2b1,3,1639593391210.0,1639593410456.0,1639593415697.0,1639593417276.0,26.066,19.246,6.82,9,9,True,3,[1],1639593409253:1,1,7,8,1,0.1111111111111111
109,run1,0109-d3e47dfb-f202-4c77-8950-a58d3d313e5e,6,1639593397895.0,1639593410987.0,1639593425148.0,1639593426381.0,28.486,13.092,15.394,7,9,False,9,[3],1639593416552:3,1,9,8,1,0.14285714285714285
110,run1,1910-999a012a-2df3-407f-9195-0d3ab6383c75,13,1639593411671.0,1639593415636.0,1639593419511.0,1639593420077.0,8.406,3.965,4.441,10,8,False,9,"[1, 4, 1]","1639593414159:1,1639593414576:4,1639593415056:1",2,9,8,3,0.3
111,run1,9549-c1f18c59-6c49-47ae-8896-f452feff6da5,10,1639593406574.0,1639593418447.0,1639593426087.0,1639593427011.0,20.437,11.873,8.564,11,11,True,18,[4],1639593417881:4,3,10,12,1,0.09090909090909091
112,run1,6505-1441f682-c593-4bdf-ba56-86382ce58058,13,1639593407178.0,1639593420729.0,1639593427265.0,1639593428118.0,20.94,13.551,7.389,8,8,True,24,"[1, 1, 1, 2, 1, 1, 1]","1639593415793:1,1639593416524:1,1639593417086:1,1639593418540:2,1639593419008:1,1639593419382:1,1639593419735:1",1,7,9,7,0.875
113,run1,3639-b70f8243-5ebf-4ded-a53e-f4027dad69c2,16,1639593415638.0,1639593422804.0,1639593427556.0,1639593429317.0,13.679,7.166,6.513,11,11,True,21,[4],1639593418216:4,1,12,13,1,0.09090909090909091
114,run1,4980-5c8ed6af-41f5-4cdb-a5b1-02ad7374d5e0,4,1639593403468.0,1639593424591.0,1639593433407.0,1639593434355.0,30.887,21.123,9.764,4,4,True,3,"[4, 2, 1]","1639593429244:4,1639593430432:2,1639593430846:1",1,2,3,3,0.75
115,run1,1910-999a012a-2df3-407f-9195-0d3ab6383c75,14,1639593422081.0,1639593426081.0,1639593428023.0,1639593428611.0,6.53,4.0,2.53,11,9,False,9,"[1, 4, 1]","1639593424864:1,1639593425231:4,1639593425810:1",2,10,9,3,0.2727272727272727
116,run1,0100-0250f292-3528-41a0-9ef3-f871d00ec234,9,1639593418852.0,1639593427541.0,1639593430702.0,1639593432293.0,13.441,8.689,4.752,4,4,True,24,[4],1639593424134:4,3,2,3,1,0.25
117,run1,9405-503c0c48-b1d9-49d8-9da2-86a208ab837c,9,1639593419978.0,1639593428701.0,1639593431509.0,1639593432273.0,12.295,8.723,3.572,4,4,True,24,"[3, 1]","1639593426043:3,1639593427311:1",3,5,3,2,0.5
118,run1,0577-d0f9764e-a392-49e8-ad05-34cfb0c92275,11,1639593424776.0,1639593429168.0,1639593434578.0,1639593437020.0,12.244,4.392,7.852,1,3,False,12,[2],1639593426926:2,3,3,2,1,1.0
119,run1,2515-ce45844d-b4fd-4433-9d4f-5244bcd8c2b1,4,1639593419282.0,1639593431269.0,1639593441549.0,1639593442831.0,23.549,11.987,11.562,11,11,True,6,[1],1639593426060:1,2,13,12,1,0.09090909090909091
120,run1,1910-999a012a-2df3-407f-9195-0d3ab6383c75,15,1639593430615.0,1639593435203.0,1639593438164.0,1639593438721.0,8.106,4.588,3.518,8,9,False,9,"[1, 4, 1]","1639593433368:1,1639593433719:4,1639593434105:1",2,9,7,3,0.375
121,run1,5157-3d1a9fad-c10e-4a00-8c24-a22868d60b2d,8,1639593411932.0,1639593439699.0,1639593465501.0,1639593466426.0,54.494,27.767,26.727,16,16,True,18,"[1, 2, 2, 2, 3, 2, 3, 1]","1639593298245:1,1639593299459:2,1639593299809:2,1639593300866:2,1639593301829:3,1639593309039:2,1639593312562:3,1639593313041:1",2,15,14,8,0.5
122,run1,6505-1441f682-c593-4bdf-ba56-86382ce58058,14,1639593430123.0,1639593441487.0,1639593452192.0,1639593453239.0,23.116,11.364,11.752,12,12,True,27,"[1, 1, 4, 1, 2, 1, 1, 1]","1639593433789:1,1639593434493:1,1639593436091:4,1639593437969:1,1639593439203:2,1639593439864:1,1639593440453:1,1639593440707:1",2,10,11,8,0.6666666666666666
123,run1,4980-5c8ed6af-41f5-4cdb-a5b1-02ad7374d5e0,5,1639593436360.0,1639593442077.0,1639593445553.0,1639593446745.0,10.385,5.717,4.668,8,10,False,6,"[1, 2, 4]","1639593447949:1,1639593448406:2,1639593449183:4",3,10,9,3,0.375
124,run1,3639-b70f8243-5ebf-4ded-a53e-f4027dad69c2,18,1639593439887.0,1639593444676.0,1639593449658.0,1639593451036.0,11.149,4.789,6.36,1,2,False,24,"[4, 4]","1639593433681:4,1639593433736:4,1639593435296:del,1639593442592:4",1,3,2,2,2.0
125,run1,1910-999a012a-2df3-407f-9195-0d3ab6383c75,16,1639593440725.0,1639593446558.0,1639593447631.0,1639593448225.0,7.5,5.833,1.667,16,15,False,9,"[4, 1, 1]","1639593445481:4,1639593445923:1,1639593446257:1",1,14,15,3,0.1875
126,run1,0109-d3e47dfb-f202-4c77-8950-a58d3d313e5e,7,1639593428382.0,1639593446778.0,1639593457222.0,1639593459421.0,31.039,18.396,12.643,10,10,True,9,[2],1639593454902:2,3,11,9,1,0.1
127,run1,9549-c1f18c59-6c49-47ae-8896-f452feff6da5,11,1639593429016.0,1639593447273.0,1639593458794.0,1639593459604.0,30.588,18.257,12.331,5,6,False,21,"[3, 2]","1639593439948:3,1639593443151:2",1,4,6,2,0.4
128,run1,0100-0250f292-3528-41a0-9ef3-f871d00ec234,10,1639593434295.0,1639593448286.0,1639593462150.0,1639593463103.0,28.808,13.991,14.817,10,10,True,27,"[4, 1, 4, 1]","1639593442550:4,1639593443150:1,1639593443588:4,1639593444054:1",3,11,9,4,0.4
129,run1,9838-da3885e8-773a-4253-8229-bd28dd512256,14,1639593421555.0,1639593448492.0,1639593452317.0,1639593453181.0,31.626,26.937,4.689,16,16,True,39,"[4, 4, 4, 4]","1639593434359:4,1639593435052:4,1639593435845:4,1639593439962:4,1639593440596:1,1639593449116:del",1,14,15,4,0.25
130,run1,4980-5c8ed6af-41f5-4cdb-a5b1-02ad7374d5e0,6,1639593448750.0,1639593453658.0,1639593460677.0,1639593461400.0,12.65,4.908,7.742,15,15,True,6,"[1, 4, 2]","1639593459466:1,1639593460211:4,1639593460837:2",2,14,16,3,0.2
131,run1,1910-999a012a-2df3-407f-9195-0d3ab6383c75,17,1639593450229.0,1639593454335.0,1639593456702.0,1639593457595.0,7.366,4.106,3.26,15,16,False,9,"[4, 1, 1]","1639593453324:4,1639593453718:1,1639593453871:1",1,14,16,3,0.2
132,run1,3639-b70f8243-5ebf-4ded-a53e-f4027dad69c2,19,1639593453045.0,1639593457389.0,1639593460837.0,1639593462137.0,9.092,4.344,4.748,9,10,False,24,"[4, 4, 4]","1639593456040:4,1639593456193:4,1639593456345:4",3,10,8,3,0.3333333333333333
133,run1,6180-111bc9d5-f170-42d4-b25b-5a553e7d53f4,3,1639593431771.0,1639593457754.0,1639593516706.0,1639593531752.0,99.981,25.983,73.998,15,15,True,3,"[4, 4, 2, 4, 1]","1639593448636:4,1639593449068:4,1639593449956:2,1639593454556:4,1639593455444:1",1,16,14,5,0.3333333333333333
134,run1,0577-d0f9764e-a392-49e8-ad05-34cfb0c92275,12,1639593439022.0,1639593457959.0,1639593473904.0,1639593475579.0,36.557,18.937,17.62,9,10,False,12,[2],1639593456440:2,2,11,10,1,0.1111111111111111
135,run1,8585-9aa44d59-f0bc-469a-9ae3-4c6bca30b069,1,1639593435543.0,1639593458288.0,1639593463106.0,1639593464536.0,28.993,22.745,6.248,1,1,True,0,[1],"1639593438323:1,1639593452564:del,1639593453361:1",1,2,3,1,1.0
136,run1,9405-503c0c48-b1d9-49d8-9da2-86a208ab837c,10,1639593434275.0,1639593458294.0,1639593482037.0,1639593482765.0,48.49,24.019,24.471,15,15,True,27,"[1, 3, 2, 1, 2, 2, 2, 2]","1639593440083:1,1639593443262:3,1639593444611:2,1639593452647:1,1639593453780:2,1639593454447:2,1639593455163:2,1639593458311:2",1,16,14,8,0.5333333333333333
137,run1,6505-1441f682-c593-4bdf-ba56-86382ce58058,15,1639593455244.0,1639593463844.0,1639593476691.0,1639593477948.0,22.704,8.6,14.104,11,11,True,30,"[2, 1, 1, 2, 1, 2, 2]","1639593458396:2,1639593459511:1,1639593460041:1,1639593460544:2,1639593460964:1,1639593462526:2,1639593462843:2",3,12,10,7,0.6363636363636364
138,run1,0137-3e1d73a9-6a65-4327-b3c0-11f6af207c24,2,1639593452025.0,1639593465053.0,1639593473497.0,1639593474342.0,22.317,13.028,9.289,9,9,True,3,"[3, 3, 3]","1639593466162:3,1639593466743:3,1639593467235:3",2,10,11,3,0.3333333333333333
139,run1,9838-da3885e8-773a-4253-8229-bd28dd512256,15,1639593455184.0,1639593465178.0,1639593476781.0,1639593477887.0,22.703,9.994,12.709,13,13,True,42,"[4, 4, 4, 1]","1639593464788:4,1639593465113:4,1639593465462:4,1639593466134:1",1,12,11,4,0.3076923076923077
140,run1,1910-999a012a-2df3-407f-9195-0d3ab6383c75,18,1639593459608.0,1639593466300.0,1639593468321.0,1639593469209.0,9.601,6.692,2.909,5,5,True,9,"[1, 1, 1, 1, 1]","1639593464882:1,1639593465056:1,1639593465250:1,1639593465468:1,1639593465744:1",1,3,4,5,1.0
141,run1,4980-5c8ed6af-41f5-4cdb-a5b1-02ad7374d5e0,7,1639593463401.0,1639593467708.0,1639593469401.0,1639593469991.0,6.59,4.307,2.283,2,3,False,9,"[1, 4, 2]","1639593473848:1,1639593474433:4,1639593474859:2",2,1,3,3,1.5
142,run1,3639-b70f8243-5ebf-4ded-a53e-f4027dad69c2,20,1639593464140.0,1639593467754.0,1639593471456.0,1639593473057.0,8.917,3.614,5.303,7,7,True,24,"[4, 4]","1639593466121:4,1639593466376:4",2,6,8,2,0.2857142857142857
143,run1,0100-0250f292-3528-41a0-9ef3-f871d00ec234,11,1639593465105.0,1639593470150.0,1639593475055.0,1639593476502.0,11.397,5.045,6.352,3,3,True,30,[3],1639593468374:3,3,5,4,1,0.3333333333333333
144,run1,1910-999a012a-2df3-407f-9195-0d3ab6383c75,19,1639593471213.0,1639593474512.0,1639593476029.0,1639593476622.0,5.409,3.299,2.11,2,2,True,12,"[1, 1]","1639593474079:1,1639593474224:1",1,3,1,2,1.0
145,run1,2515-ce45844d-b4fd-4433-9d4f-5244bcd8c2b1,5,1639593444835.0,1639593474730.0,1639593481986.0,1639593483113.0,38.278,29.895,8.383,7,6,False,9,[1],1639593466124:1,2,6,8,1,0.14285714285714285
146,run1,4980-5c8ed6af-41f5-4cdb-a5b1-02ad7374d5e0,8,1639593471996.0,1639593476941.0,1639593479845.0,1639593480546.0,8.55,4.945,3.605,3,4,False,9,"[4, 2, 1]","1639593483124:4,1639593483884:2,1639593484154:1",1,4,2,3,1.0
147,run1,0109-d3e47dfb-f202-4c77-8950-a58d3d313e5e,8,1639593461429.0,1639593477094.0,1639593488460.0,1639593492041.0,30.612,15.665,14.947,5,5,True,12,[1],1639593480853:1,3,4,3,1,0.2
148,run1,5157-3d1a9fad-c10e-4a00-8c24-a22868d60b2d,9,1639593468431.0,1639593478518.0,1639593486072.0,1639593486969.0,18.538,10.087,8.451,6,6,True,21,"[1, 2, 1, 1, 1]","1639593348364:1,1639593349446:2,1639593350512:1,1639593351032:1,1639593351669:1",1,7,5,5,0.8333333333333334
149,run1,0137-3e1d73a9-6a65-4327-b3c0-11f6af207c24,3,1639593476343.0,1639593480364.0,1639593481913.0,1639593482656.0,6.313,4.021,2.292,2,2,True,6,[2],1639593485329:2,1,4,3,1,0.5
150,run1,3639-b70f8243-5ebf-4ded-a53e-f4027dad69c2,21,1639593475059.0,1639593481026.0,1639593484243.0,1639593485577.0,10.518,5.967,4.551,16,15,False,27,"[4, 4]","1639593479936:4,1639593480056:4",2,15,14,2,0.125
151,run1,9838-da3885e8-773a-4253-8229-bd28dd512256,16,1639593479888.0,1639593483184.0,1639593485160.0,1639593485935.0,6.047,3.296,2.751,2,2,True,45,[2],1639593484086:2,2,1,3,1,0.5
152,run1,8585-9aa44d59-f0bc-469a-9ae3-4c6bca30b069,2,1639593466540.0,1639593483591.0,1639593554768.0,1639593555896.0,89.356,17.051,72.305,10,10,True,3,"[4, 4, 2]","1639593474871:4,1639593475736:4,1639593476870:2",1,12,11,3,0.3
153,run1,6505-1441f682-c593-4bdf-ba56-86382ce58058,16,1639593479954.0,1639593484296.0,1639593486186.0,1639593487096.0,7.142,4.342,2.8,2,2,True,33,"[1, 1]","1639593483107:1,1639593483261:1",3,3,1,2,1.0
154,run1,1910-999a012a-2df3-407f-9195-0d3ab6383c75,20,1639593478625.0,1639593484668.0,1639593492113.0,1639593492778.0,14.153,6.043,8.11,14,14,True,15,"[4, 2, 2]","1639593482859:4,1639593483780:2,1639593484075:2",1,13,15,3,0.21428571428571427
155,run1,0577-d0f9764e-a392-49e8-ad05-34cfb0c92275,13,1639593477584.0,1639593485786.0,1639593494643.0,1639593497228.0,19.644,8.202,11.442,11,11,True,12,[2],1639593484258:2,1,12,13,1,0.09090909090909091
156,run1,7367-2d612f2f-a1f4-4d6b-a5d5-7f54c0c15eac,1,1639593368523.0,1639593485981.0,1639593513370.0,1639593514700.0,146.177,117.458,28.719,11,11,True,0,"[4, 4, 3]","1639593473523:4,1639593475779:4,1639593478857:3",1,9,10,3,0.2727272727272727
157,run1,0100-0250f292-3528-41a0-9ef3-f871d00ec234,12,1639593478506.0,1639593487195.0,1639593491838.0,1639593492727.0,14.221,8.689,5.532,7,7,True,33,"[3, 4]","1639593484908:3,1639593486178:4",3,6,8,2,0.2857142857142857
158,run1,9405-503c0c48-b1d9-49d8-9da2-86a208ab837c,11,1639593484769.0,1639593489822.0,1639593491305.0,1639593491921.0,7.152,5.053,2.099,1,1,True,30,[1],1639593489918:1,2,3,2,1,1.0
159,run1,0137-3e1d73a9-6a65-4327-b3c0-11f6af207c24,4,1639593484657.0,1639593490116.0,1639593494177.0,1639593494900.0,10.243,5.459,4.784,6,6,True,9,"[3, 3]","1639593494611:3,1639593494913:3",3,8,7,2,0.3333333333333333
160,run1,9549-c1f18c59-6c49-47ae-8896-f452feff6da5,12,1639593461612.0,1639593490430.0,1639593501130.0,1639593502303.0,40.691,28.818,11.873,15,14,False,21,"[1, 4]","1639593469399:1,1639593478506:2,1639593484537:4,1639593487152:del,1639593488480:del,1639593488946:del,1639593490550:1,1639593491461:4",3,13,14,2,0.13333333333333333
161,run1,4980-5c8ed6af-41f5-4cdb-a5b1-02ad7374d5e0,9,1639593482551.0,1639593491816.0,1639593504507.0,1639593505073.0,22.522,9.265,13.257,12,13,False,9,"[1, 2, 4]","1639593497957:1,1639593498294:2,1639593498861:4",3,14,13,3,0.25
162,run1,3639-b70f8243-5ebf-4ded-a53e-f4027dad69c2,22,1639593487585.0,1639593491873.0,1639593494885.0,1639593496516.0,8.931,4.288,4.643,4,6,False,27,"[4, 4, 4]","1639593490152:4,1639593490305:4,1639593491000:4",3,5,6,3,0.75
163,run1,0089-84ef8c77-b491-4608-9f6f-f3b5bab1c2d8,2,1639593415727.0,1639593494852.0,1639593518418.0,1639593520554.0,104.827,79.125,25.702,14,12,False,3,[3],"1639593476734:3,1639593479006:3,1639593479599:4,1639593480726:del,1639593481398:del,1639593481799:del,1639593486366:3",3,13,12,1,0.07142857142857142
164,run1,9838-da3885e8-773a-4253-8229-bd28dd512256,17,1639593487936.0,1639593495640.0,1639593501365.0,1639593502100.0,14.164,7.704,6.46,10,10,True,48,"[4, 4, 2]","1639593495914:4,1639593496217:4,1639593496688:2",1,9,11,3,0.3
165,run1,1910-999a012a-2df3-407f-9195-0d3ab6383c75,21,1639593494783.0,1639593498875.0,1639593502475.0,1639593502983.0,8.2,4.092,4.108,12,14,False,18,"[4, 2, 2]","1639593497979:4,1639593498410:2,1639593498549:2",1,14,13,3,0.25
166,run1,6505-1441f682-c593-4bdf-ba56-86382ce58058,17,1639593489097.0,1639593502228.0,1639593528445.0,1639593529282.0,40.185,13.131,27.054,16,16,True,36,"[1, 1, 2, 3, 1, 2, 1, 2, 1, 2]","1639593493381:1,1639593493935:1,1639593494608:2,1639593496335:3,1639593497250:1,1639593498739:2,1639593499505:1,1639593500649:2,1639593501124:1,1639593501493:2",2,15,14,10,0.625
167,run1,3639-b70f8243-5ebf-4ded-a53e-f4027dad69c2,23,1639593498525.0,1639593502449.0,1639593507016.0,1639593508477.0,9.952,3.924,6.028,6,6,True,27,"[4, 4, 4]","1639593500889:4,1639593501049:4,1639593501241:4",3,5,7,3,0.5
168,run1,9838-da3885e8-773a-4253-8229-bd28dd512256,18,1639593504103.0,1639593506931.0,1639593508653.0,1639593509415.0,5.312,2.828,2.484,1,1,True,51,[1],1639593508050:1,3,3,2,1,1.0
169,run1,9405-503c0c48-b1d9-49d8-9da2-86a208ab837c,12,1639593493927.0,1639593509142.0,1639593519525.0,1639593520745.0,26.818,15.215,11.603,8,8,True,33,"[1, 2, 1, 3, 1]","1639593500376:1,1639593504421:2,1639593506134:1,1639593507257:3,1639593508490:1",2,9,7,5,0.625
170,run1,0577-d0f9764e-a392-49e8-ad05-34cfb0c92275,14,1639593499240.0,1639593509451.0,1639593515778.0,1639593517558.0,18.318,10.211,8.107,10,9,False,15,[3],1639593507906:3,3,9,11,1,0.1
171,run1,2515-ce45844d-b4fd-4433-9d4f-5244bcd8c2b1,6,1639593485118.0,1639593511147.0,1639593522785.0,1639593524991.0,39.873,26.029,13.844,12,11,False,9,[3],1639593500986:3,2,13,11,1,0.08333333333333333
172,run1,0100-0250f292-3528-41a0-9ef3-f871d00ec234,13,1639593494729.0,1639593511854.0,1639593527946.0,1639593528962.0,34.233,17.125,17.108,16,16,True,36,"[4, 4, 4, 4]","1639593505900:4,1639593506176:4,1639593506494:4,1639593506818:4",3,14,15,4,0.25
173,run1,0137-3e1d73a9-6a65-4327-b3c0-11f6af207c24,5,1639593496901.0,1639593512435.0,1639593517545.0,1639593518163.0,21.262,15.534,5.728,12,12,True,12,"[4, 4, 4]","1639593515451:4,1639593515955:4,1639593516337:4",2,11,10,3,0.25
174,run1,3639-b70f8243-5ebf-4ded-a53e-f4027dad69c2,24,1639593510479.0,1639593513361.0,1639593518965.0,1639593520397.0,9.918,2.882,7.036,14,16,False,30,"[4, 4, 4]","1639593512065:4,1639593512201:4,1639593512361:4",3,15,16,3,0.21428571428571427
175,run1,5157-3d1a9fad-c10e-4a00-8c24-a22868d60b2d,10,1639593488971.0,1639593515618.0,1639593540186.0,1639593541123.0,52.152,26.647,25.505,14,14,True,24,"[2, 1, 1, 1, 2, 1, 1, 3, 1, 1]","1639593377920:2,1639593378897:1,1639593380848:1,1639593381500:1,1639593382241:2,1639593384382:1,1639593386551:1,1639593387292:3,1639593388192:1,1639593388425:1",2,15,13,10,0.7142857142857143
176,run1,4980-5c8ed6af-41f5-4cdb-a5b1-02ad7374d5e0,10,1639593507077.0,1639593516083.0,1639593517786.0,1639593518428.0,11.351,9.006,2.345,10,11,False,9,"[1, 2, 4]","1639593521696:1,1639593522500:2,1639593523065:4",1,9,11,3,0.3
177,run1,1910-999a012a-2df3-407f-9195-0d3ab6383c75,22,1639593504988.0,1639593516677.0,1639593521106.0,1639593521944.0,16.956,11.689,5.267,6,8,False,18,"[4, 4, 4, 4, 4, 4]","1639593508388:2,1639593508539:2,1639593508858:4,1639593513615:del,1639593513895:del,1639593514107:del,1639593515290:4,1639593515440:4,1639593515626:4,1639593515902:4,1639593516124:4,1639593516368:4",3,7,8,6,1.0
178,run1,9838-da3885e8-773a-4253-8229-bd28dd512256,19,1639593511419.0,1639593517083.0,1639593519531.0,1639593521061.0,9.642,5.664,3.978,6,6,True,54,"[4, 2]","1639593517176:4,1639593518109:2",3,8,7,2,0.3333333333333333
179,run1,9549-c1f18c59-6c49-47ae-8896-f452feff6da5,13,1639593504307.0,1639593519000.0,1639593541736.0,1639593542464.0,38.157,14.693,23.464,12,13,False,21,[3],"1639593515829:3,1639593515859:3,1639593520035:del",1,14,13,1,0.08333333333333333
180,run1,4980-5c8ed6af-41f5-4cdb-a5b1-02ad7374d5e0,11,1639593520437.0,1639593524945.0,1639593533605.0,1639593534245.0,13.808,4.508,9.3,16,16,True,9,"[1, 2, 4]","1639593530799:1,1639593531227:2,1639593531838:4",1,15,14,3,0.1875
181,run1,0577-d0f9764e-a392-49e8-ad05-34cfb0c92275,15,1639593519569.0,1639593525291.0,1639593530579.0,1639593532328.0,12.759,5.722,7.037,7,6,False,15,[3],1639593522725:3,2,8,6,1,0.14285714285714285
182,run1,9838-da3885e8-773a-4253-8229-bd28dd512256,20,1639593523065.0,1639593527421.0,1639593528712.0,1639593529487.0,6.422,4.356,2.066,4,4,True,57,[4],1639593528457:4,1,6,5,1,0.25
183,run1,3639-b70f8243-5ebf-4ded-a53e-f4027dad69c2,25,1639593522398.0,1639593527921.0,1639593532917.0,1639593534217.0,11.819,5.523,6.296,5,4,False,30,[4],1639593524928:4,1,6,4,1,0.2
184,run1,9405-503c0c48-b1d9-49d8-9da2-86a208ab837c,13,1639593522747.0,1639593528851.0,1639593531793.0,1639593532683.0,9.936,6.104,3.832,3,3,True,36,[3],1639593528038:3,2,2,4,1,0.3333333333333333
185,run1,1910-999a012a-2df3-407f-9195-0d3ab6383c75,23,1639593523947.0,1639593529344.0,1639593531133.0,1639593532362.0,8.415,5.397,3.018,13,14,False,18,"[2, 2, 4]","1639593528366:2,1639593528561:2,1639593529072:4",3,12,14,3,0.23076923076923078
186,run1,0137-3e1d73a9-6a65-4327-b3c0-11f6af207c24,6,1639593520164.0,1639593531990.0,1639593543761.0,1639593544426.0,24.262,11.826,12.436,16,16,True,15,"[4, 4, 4, 4]","1639593535748:4,1639593536077:4,1639593536411:4,1639593536737:4",2,15,14,4,0.25
187,run1,7367-2d612f2f-a1f4-4d6b-a5d5-7f54c0c15eac,2,1639593516701.0,1639593534313.0,1639593560727.0,1639593561707.0,45.006,17.612,27.394,5,5,True,3,"[4, 1]","1639593532338:4,1639593533093:1",3,6,4,2,0.4
188,run1,2515-ce45844d-b4fd-4433-9d4f-5244bcd8c2b1,7,1639593526996.0,1639593535201.0,1639593539062.0,1639593540477.0,13.481,8.205,5.276,1,3,False,9,[1],1639593533380:1,1,2,3,1,1.0
189,run1,0577-d0f9764e-a392-49e8-ad05-34cfb0c92275,16,1639593534339.0,1639593538061.0,1639593544688.0,1639593546468.0,12.129,3.722,8.407,3,1,False,15,[2],1639593536658:2,1,2,1,1,0.3333333333333333
190,run1,0100-0250f292-3528-41a0-9ef3-f871d00ec234,14,1639593530966.0,1639593538591.0,1639593547235.0,1639593548082.0,17.116,7.625,9.491,8,8,True,39,"[4, 4]","1639593537316:4,1639593537442:4",3,9,7,2,0.25
191,run1,3639-b70f8243-5ebf-4ded-a53e-f4027dad69c2,26,1639593536225.0,1639593540218.0,1639593545916.0,1639593547657.0,11.432,3.993,7.439,15,15,True,30,"[4, 4, 4]","1639593538817:4,1639593538946:4,1639593539073:4",3,13,14,3,0.2
192,run1,6505-1441f682-c593-4bdf-ba56-86382ce58058,18,1639593531289.0,1639593540682.0,1639593557463.0,1639593558563.0,27.274,9.393,17.881,10,10,True,39,"[2, 1, 1, 1, 1, 1, 1, 1, 1]","1639593534447:2,1639593535011:1,1639593535950:1,1639593536440:1,1639593537781:1,1639593538366:1,1639593539322:1,1639593539644:1,1639593539906:1",2,9,11,9,0.9
193,run1,1910-999a012a-2df3-407f-9195-0d3ab6383c75,24,1639593534367.0,1639593541623.0,1639593545653.0,1639593546337.0,11.97,7.256,4.714,4,4,True,18,"[4, 4, 4, 4]","1639593540390:4,1639593540546:4,1639593540713:4,1639593540852:4",2,3,5,4,1.0
194,run1,9838-da3885e8-773a-4253-8229-bd28dd512256,21,1639593531490.0,1639593542525.0,1639593547399.0,1639593548453.0,16.963,11.035,5.928,15,15,True,60,"[4, 4, 4, 3]","1639593541589:4,1639593541885:4,1639593542237:4,1639593543612:3",2,14,16,4,0.26666666666666666
195,run1,0109-d3e47dfb-f202-4c77-8950-a58d3d313e5e,9,1639593494043.0,1639593543744.0,1639593575961.0,1639593577856.0,83.813,49.701,34.112,16,16,True,15,[4],1639593520853:4,2,14,15,1,0.0625
196,run1,4980-5c8ed6af-41f5-4cdb-a5b1-02ad7374d5e0,12,1639593536251.0,1639593544700.0,1639593547674.0,1639593548195.0,11.944,8.449,3.495,1,3,False,12,"[1, 2, 4]","1639593547101:2,1639593549906:del,1639593550711:1,1639593551127:2,1639593551679:4",1,2,3,3,3.0
197,run1,6180-111bc9d5-f170-42d4-b25b-5a553e7d53f4,4,1639593533754.0,1639593546161.0,1639593552447.0,1639593561970.0,28.216,12.407,15.809,5,5,True,6,"[4, 1]","1639593542772:4,1639593543540:1",2,6,4,2,0.4
198,run1,9405-503c0c48-b1d9-49d8-9da2-86a208ab837c,14,1639593534685.0,1639593549650.0,1639593563717.0,1639593564317.0,29.632,14.965,14.667,13,13,True,39,"[1, 1, 2, 2, 2, 2, 3]","1639593540901:1,1639593541418:1,1639593543724:2,1639593544492:2,1639593545390:2,1639593546145:2,1639593547345:3",1,14,15,7,0.5384615384615384
199,run1,1910-999a012a-2df3-407f-9195-0d3ab6383c75,25,1639593548341.0,1639593552152.0,1639593554340.0,1639593555083.0,6.742,3.811,2.931,3,3,True,21,"[4, 4, 4]","1639593551302:4,1639593551477:4,1639593551632:4",2,2,1,3,1.0
200,run1,0137-3e1d73a9-6a65-4327-b3c0-11f6af207c24,7,1639593546427.0,1639593552206.0,1639593559299.0,1639593562358.0,15.931,5.779,10.152,5,5,True,18,"[4, 2]","1639593556121:4,1639593556741:2",3,4,3,2,0.4
201,run1,9549-c1f18c59-6c49-47ae-8896-f452feff6da5,14,1639593544465.0,1639593553248.0,1639593563801.0,1639593564636.0,20.171,8.783,11.388,8,8,True,21,[4],1639593554254:4,2,7,6,1,0.125
202,run1,3639-b70f8243-5ebf-4ded-a53e-f4027dad69c2,27,1639593549665.0,1639593555002.0,1639593557397.0,1639593558857.0,9.192,5.337,3.855,3,5,False,33,"[4, 4, 4]","1639593553769:4,1639593553897:4,1639593554066:4",3,5,4,3,1.0
203,run1,4980-5c8ed6af-41f5-4cdb-a5b1-02ad7374d5e0,13,1639593550200.0,1639593555970.0,1639593559095.0,1639593559599.0,9.399,5.77,3.629,13,12,False,12,"[1, 2, 4]","1639593562129:1,1639593562512:2,1639593563009:4",1,12,14,3,0.23076923076923078
204,run1,2515-ce45844d-b4fd-4433-9d4f-5244bcd8c2b1,8,1639593542481.0,1639593556187.0,1639593560456.0,1639593561556.0,19.075,13.706,5.369,13,13,True,9,[1],1639593552840:1,1,11,12,1,0.07692307692307693
205,run1,8777-5775e5ea-92db-40a7-8381-9c5e6b710e24,1,1639593507897.0,1639593558107.0,1639593568904.0,1639593570727.0,62.83,50.21,12.62,12,10,False,0,[4],1639593564726:4,3,10,11,1,0.08333333333333333
206,run1,9838-da3885e8-773a-4253-8229-bd28dd512256,22,1639593550466.0,1639593559819.0,1639593566202.0,1639593567623.0,17.157,9.353,7.804,11,11,True,63,"[4, 4, 3]","1639593558596:4,1639593559120:4,1639593560949:3",1,9,10,3,0.2727272727272727
207,run1,0577-d0f9764e-a392-49e8-ad05-34cfb0c92275,17,1639593548479.0,1639593559989.0,1639593571638.0,1639593573553.0,25.074,11.51,13.564,15,16,False,15,[4],1639593558194:4,3,16,14,1,0.06666666666666667
208,run1,3639-b70f8243-5ebf-4ded-a53e-f4027dad69c2,28,1639593560865.0,1639593564722.0,1639593572477.0,1639593573659.0,12.794,3.857,8.937,12,10,False,33,"[4, 4, 4]","1639593563345:4,1639593563506:4,1639593563705:4",3,10,11,3,0.25
209,run1,1910-999a012a-2df3-407f-9195-0d3ab6383c75,26,1639593557088.0,1639593564784.0,1639593580947.0,1639593581489.0,24.401,7.696,16.705,9,9,True,24,"[4, 4, 4, 4, 4, 4, 4, 4, 4]","1639593562411:4,1639593562602:4,1639593562827:4,1639593563083:4,1639593563361:4,1639593563628:4,1639593563911:4,1639593564173:4,1639593564415:4",1,11,10,9,1.0
210,run1,0100-0250f292-3528-41a0-9ef3-f871d00ec234,15,1639593550085.0,1639593566122.0,1639593574557.0,1639593581821.0,31.736,16.037,15.699,14,14,True,42,"[4, 4, 4, 2]","1639593561009:4,1639593561161:4,1639593564864:4,1639593565352:2",3,13,12,4,0.2857142857142857
211,run1,4980-5c8ed6af-41f5-4cdb-a5b1-02ad7374d5e0,14,1639593561603.0,1639593567111.0,1639593568970.0,1639593569539.0,7.936,5.508,2.428,5,5,True,12,"[1, 2, 4]","1639593572842:1,1639593573260:2,1639593573816:4",1,6,4,3,0.6
212,run1,0137-3e1d73a9-6a65-4327-b3c0-11f6af207c24,8,1639593564364.0,1639593568077.0,1639593570092.0,1639593570705.0,6.341,3.713,2.628,1,1,True,21,[1],1639593572870:1,1,3,2,1,1.0
213,run1,8585-9aa44d59-f0bc-469a-9ae3-4c6bca30b069,3,1639593557901.0,1639593569164.0,1639593577435.0,1639593578223.0,20.322,11.263,9.059,6,6,True,6,"[4, 2]","1639593565873:4,1639593566300:2",3,5,7,2,0.3333333333333333
214,run1,2515-ce45844d-b4fd-4433-9d4f-5244bcd8c2b1,9,1639593563561.0,1639593570225.0,1639593573981.0,1639593575023.0,11.462,6.664,4.798,2,2,True,12,[2],1639593567264:2,1,3,1,1,0.5
215,run1,8185-ce4ab2f7-c672-4523-9431-48840a8f2dd3,1,1639593531504.0,1639593570323.0,1639593612826.0,1639593613900.0,82.396,38.819,43.577,11,13,False,0,"[3, 2, 1]","1639593550278:3,1639593565093:2,1639593565609:1",3,13,12,3,0.2727272727272727
216,run1,6505-1441f682-c593-4bdf-ba56-86382ce58058,19,1639593560565.0,1639593571292.0,1639593597656.0,1639593598711.0,38.146,10.727,27.419,13,15,False,42,"[1, 1, 2, 1, 1, 1, 4, 1, 1]","1639593563798:1,1639593564275:1,1639593566033:2,1639593566826:1,1639593567298:1,1639593567997:1,1639593569599:4,1639593570269:1,1639593570550:1",3,15,14,9,0.6923076923076923
217,run1,9838-da3885e8-773a-4253-8229-bd28dd512256,23,1639593569626.0,1639593573191.0,1639593575316.0,1639593576170.0,6.544,3.565,2.979,3,3,True,66,[3],1639593574103:3,2,4,2,1,0.3333333333333333
218,run1,9549-c1f18c59-6c49-47ae-8896-f452feff6da5,15,1639593566642.0,1639593576447.0,1639593583958.0,1639593584781.0,18.139,9.805,8.334,6,6,True,24,[1],1639593577547:1,3,7,8,1,0.16666666666666666
219,run1,3639-b70f8243-5ebf-4ded-a53e-f4027dad69c2,29,1639593575677.0,1639593578717.0,1639593581498.0,1639593583079.0,7.402,3.04,4.362,10,8,False,33,[4],1639593577809:4,1,9,8,1,0.1
220,run1,4980-5c8ed6af-41f5-4cdb-a5b1-02ad7374d5e0,15,1639593571543.0,1639593579402.0,1639593580372.0,1639593581262.0,9.719,7.859,1.86,14,14,True,15,"[1, 4, 2]","1639593583279:1,1639593585544:4,1639593586354:2",2,12,13,3,0.21428571428571427
221,run1,0577-d0f9764e-a392-49e8-ad05-34cfb0c92275,18,1639593575561.0,1639593580590.0,1639593585843.0,1639593587243.0,11.682,5.029,6.653,2,4,False,15,[2],1639593579230:2,1,3,4,1,0.5
222,run1,6180-111bc9d5-f170-42d4-b25b-5a553e7d53f4,5,1639593563979.0,1639593582270.0,1639593590595.0,1639593592968.0,28.989,18.291,10.698,7,7,True,9,"[4, 3]","1639593576956:4,1639593577420:3",3,6,8,2,0.2857142857142857
223,run1,9838-da3885e8-773a-4253-8229-bd28dd512256,24,1639593578173.0,1639593583083.0,1639593588284.0,1639593589104.0,10.931,4.91,6.021,5,5,True,69,"[4, 1]","1639593583274:4,1639593583930:1",2,7,6,2,0.4
224,run1,5157-3d1a9fad-c10e-4a00-8c24-a22868d60b2d,11,1639593543127.0,1639593583420.0,1639593600817.0,1639593606528.0,63.401,40.293,23.108,13,13,True,27,"[1, 2, 4, 3, 3]","1639593425463:1,1639593427548:2,1639593449373:4,1639593450415:3,1639593450595:3",3,12,11,5,0.38461538461538464
225,run1,7367-2d612f2f-a1f4-4d6b-a5d5-7f54c0c15eac,3,1639593563708.0,1639593583740.0,1639593607951.0,1639593609052.0,45.344,20.032,25.312,9,9,True,6,"[4, 4, 1]","1639593581018:4,1639593581150:4,1639593582466:1",1,10,8,3,0.3333333333333333
226,run1,1910-999a012a-2df3-407f-9195-0d3ab6383c75,27,1639593583494.0,1639593586801.0,1639593588200.0,1639593588715.0,5.221,3.307,1.914,1,1,True,27,[4],1639593586428:4,1,2,3,1,1.0
227,run1,8777-5775e5ea-92db-40a7-8381-9c5e6b710e24,2,1639593572736.0,1639593587895.0,1639593590326.0,1639593591551.0,18.815,15.159,3.656,3,3,True,0,[3],1639593597150:3,1,4,2,1,0.3333333333333333
228,run1,2515-ce45844d-b4fd-4433-9d4f-5244bcd8c2b1,10,1639593577027.0,1639593587902.0,1639593598353.0,1639593599379.0,22.352,10.875,11.477,10,11,False,15,[2],1639593586650:2,3,9,11,1,0.1
229,run1,0109-d3e47dfb-f202-4c77-8950-a58d3d313e5e,10,1639593579857.0,1639593588137.0,1639593617441.0,1639593620181.0,40.324,8.28,32.044,9,9,True,18,[1],1639593596129:1,2,8,7,1,0.1111111111111111
230,run1,3639-b70f8243-5ebf-4ded-a53e-f4027dad69c2,30,1639593585082.0,1639593588307.0,1639593596557.0,1639593598036.0,12.954,3.225,9.729,13,13,True,33,"[4, 4]","1639593587282:4,1639593587441:4",2,15,14,2,0.15384615384615385
231,run1,0089-84ef8c77-b491-4608-9f6f-f3b5bab1c2d8,3,1639593522557.0,1639593589096.0,1639593653770.0,1639593659224.0,136.667,66.539,70.128,11,11,True,3,"[3, 4]","1639593569062:3,1639593587591:4",2,10,9,2,0.18181818181818182
232,run1,4980-5c8ed6af-41f5-4cdb-a5b1-02ad7374d5e0,16,1639593583267.0,1639593589468.0,1639593591221.0,1639593591817.0,8.55,6.201,2.349,7,8,False,18,"[1, 2, 4]","1639593595786:1,1639593596136:2,1639593596628:4",1,8,6,3,0.42857142857142855
233,run1,5706-15cc8601-ef29-4552-a43d-bdeec4b67fc6,1,1639593580127.0,1639593592264.0,1639593602674.0,1639593604026.0,23.899,12.137,11.762,10,12,False,0,[4],1639593586782:4,3,12,11,1,0.1
234,run1,0100-0250f292-3528-41a0-9ef3-f871d00ec234,16,1639593583823.0,1639593592760.0,1639593601437.0,1639593605414.0,21.591,8.937,12.654,9,9,True,45,"[4, 4, 1]","1639593591311:4,1639593591467:4,1639593592031:1",3,11,10,3,0.3333333333333333
235,run1,9549-c1f18c59-6c49-47ae-8896-f452feff6da5,16,1639593586785.0,1639593595223.0,1639593604062.0,1639593605655.0,18.87,8.438,10.432,10,10,True,27,[1],1639593596073:1,1,11,12,1,0.1
236,run1,0137-3e1d73a9-6a65-4327-b3c0-11f6af207c24,9,1639593572709.0,1639593595580.0,1639593598528.0,1639593599341.0,26.632,22.871,3.761,10,10,True,24,"[4, 4, 2]","1639593588761:4,1639593589489:4,1639593589863:4,1639593592423:del,1639593592853:del,1639593593013:del,1639593598339:4,1639593598865:4,1639593599587:2",1,11,9,3,0.3
237,run1,8585-9aa44d59-f0bc-469a-9ae3-4c6bca30b069,4,1639593580226.0,1639593596903.0,1639593608589.0,1639593609376.0,29.15,16.677,12.473,7,7,True,9,"[4, 3]","1639593592314:4,1639593593227:3,1639593594836:del,1639593596106:3",1,8,9,2,0.2857142857142857
238,run1,9838-da3885e8-773a-4253-8229-bd28dd512256,25,1639593591106.0,1639593597892.0,1639593601106.0,1639593601853.0,10.747,6.786,3.961,7,7,True,72,"[4, 3]","1639593598190:4,1639593598994:3",1,9,8,2,0.2857142857142857
239,run1,0577-d0f9764e-a392-49e8-ad05-34cfb0c92275,19,1639593589256.0,1639593598326.0,1639593610988.0,1639593612629.0,23.373,9.07,14.303,8,8,True,15,[3],1639593596915:3,1,7,9,1,0.125
240,run1,4980-5c8ed6af-41f5-4cdb-a5b1-02ad7374d5e0,17,1639593593819.0,1639593598453.0,1639593602138.0,1639593602664.0,8.845,4.634,4.211,6,6,True,18,"[1, 2, 4]","1639593604693:1,1639593605078:2,1639593605592:4",1,5,4,3,0.5
241,run1,1910-999a012a-2df3-407f-9195-0d3ab6383c75,28,1639593590720.0,1639593600941.0,1639593608430.0,1639593609019.0,18.299,10.221,8.078,7,7,True,30,"[4, 4, 4, 4, 4, 4, 4]","1639593597309:4,1639593598089:4,1639593598493:4,1639593598926:4,1639593599325:4,1639593599657:4,1639593599944:4",3,6,5,7,1.0
242,run1,9405-503c0c48-b1d9-49d8-9da2-86a208ab837c,15,1639593566318.0,1639593603522.0,1639593617033.0,1639593619297.0,52.979,37.204,15.775,11,11,True,42,"[1, 1, 1, 2, 2, 2, 1, 1]","1639593580829:1,1639593586831:1,1639593587907:1,1639593589120:2,1639593589836:2,1639593590963:2,1639593593172:1,1639593593755:1",1,10,12,8,0.7272727272727273
243,run1,3639-b70f8243-5ebf-4ded-a53e-f4027dad69c2,31,1639593600046.0,1639593603667.0,1639593609397.0,1639593611177.0,11.131,3.621,7.51,8,8,True,36,"[4, 4, 4]","1639593602289:4,1639593602465:4,1639593602641:4",3,9,7,3,0.375
244,run1,6505-1441f682-c593-4bdf-ba56-86382ce58058,20,1639593600713.0,1639593608986.0,1639593619791.0,1639593620896.0,20.183,8.273,11.91,6,6,True,42,"[1, 3, 1, 1]","1639593603792:1,1639593605095:3,1639593606264:1,1639593607767:1",2,5,7,4,0.6666666666666666
245,run1,4980-5c8ed6af-41f5-4cdb-a5b1-02ad7374d5e0,18,1639593604670.0,1639593609068.0,1639593610723.0,1639593611277.0,6.607,4.398,2.209,9,9,True,21,"[1, 2, 4]","1639593615128:1,1639593615522:2,1639593616337:4",1,11,10,3,0.3333333333333333
246,run1,5703-feaef934-e2d6-41af-b26b-aa639096547d,1,1639593595731.0,1639593610099.0,1639593623166.0,1639593624701.0,28.97,14.368,14.602,14,13,False,0,[3],1639593629063:3,3,15,13,1,0.07142857142857142
247,run1,0100-0250f292-3528-41a0-9ef3-f871d00ec234,17,1639593607416.0,1639593612015.0,1639593614189.0,1639593615070.0,7.654,4.599,3.055,1,1,True,48,[1],1639593610513:1,3,3,2,1,1.0
248,run1,5706-15cc8601-ef29-4552-a43d-bdeec4b67fc6,2,1639593606031.0,1639593612355.0,1639593615726.0,1639593617098.0,11.067,6.324,4.743,7,9,False,0,[4],1639593610386:4,3,9,8,1,0.14285714285714285
249,run1,9838-da3885e8-773a-4253-8229-bd28dd512256,26,1639593603855.0,1639593612838.0,1639593615463.0,1639593616365.0,12.51,8.983,3.527,12,12,True,75,"[4, 4, 4]","1639593612526:4,1639593612885:4,1639593613858:4",1,10,11,3,0.25
250,run1,2515-ce45844d-b4fd-4433-9d4f-5244bcd8c2b1,11,1639593601387.0,1639593613442.0,1639593617912.0,1639593619154.0,17.767,12.055,5.712,5,6,False,15,[1],1639593609786:1,2,6,4,1,0.2
251,run1,6180-111bc9d5-f170-42d4-b25b-5a553e7d53f4,6,1639593594972.0,1639593615633.0,1639593638391.0,1639593678175.0,83.203,20.661,62.542,16,16,True,12,"[4, 4, 4, 4]","1639593610492:4,1639593611708:4,1639593612956:4,1639593613324:4",1,14,15,4,0.25
252,run1,3639-b70f8243-5ebf-4ded-a53e-f4027dad69c2,32,1639593613179.0,1639593616034.0,1639593622517.0,1639593623556.0,10.377,2.855,7.522,11,11,True,39,[4],1639593615154:4,1,10,9,1,0.09090909090909091
253,run1,8777-5775e5ea-92db-40a7-8381-9c5e6b710e24,3,1639593593554.0,1639593616272.0,1639593628567.0,1639593629545.0,35.991,22.718,13.273,11,10,False,3,[2],1639593627393:2,2,10,12,1,0.09090909090909091
254,run1,4980-5c8ed6af-41f5-4cdb-a5b1-02ad7374d5e0,19,1639593613282.0,1639593617600.0,1639593619889.0,1639593620443.0,7.161,4.318,2.843,11,11,True,24,"[1, 4, 2]","1639593623741:1,1639593624322:4,1639593624823:2",2,9,10,3,0.2727272727272727
255,run1,9549-c1f18c59-6c49-47ae-8896-f452feff6da5,17,1639593607658.0,1639593621299.0,1639593634238.0,1639593635169.0,27.511,13.641,13.87,9,8,False,30,"[3, 2, 3]","1639593618693:3,1639593621290:2,1639593622501:3",3,8,10,3,0.3333333333333333
256,run1,1910-999a012a-2df3-407f-9195-0d3ab6383c75,29,1639593611023.0,1639593621485.0,1639593628531.0,1639593629111.0,18.088,10.462,7.626,10,10,True,33,"[4, 4, 4, 4, 4, 4, 4, 4, 4, 4]","1639593618649:4,1639593618871:4,1639593619127:4,1639593619416:4,1639593619705:4,1639593619997:4,1639593620301:4,1639593620581:4,1639593620831:4,1639593621102:4",1,11,9,10,1.0
257,run1,0137-3e1d73a9-6a65-4327-b3c0-11f6af207c24,10,1639593601344.0,1639593621540.0,1639593641195.0,1639593641872.0,40.528,20.196,20.332,13,13,True,27,"[4, 4, 4, 1]","1639593623413:4,1639593623961:4,1639593625419:4,1639593626117:1",3,14,15,4,0.3076923076923077
258,run1,0100-0250f292-3528-41a0-9ef3-f871d00ec234,18,1639593617071.0,1639593622167.0,1639593630581.0,1639593631366.0,14.295,5.096,9.199,6,6,True,51,"[4, 2]","1639593620777:4,1639593621301:2",3,7,8,2,0.3333333333333333
259,run1,9838-da3885e8-773a-4253-8229-bd28dd512256,27,1639593618367.0,1639593623803.0,1639593626898.0,1639593628893.0,10.526,5.436,5.09,8,8,True,78,"[4, 4]","1639593624737:4,1639593624879:4",2,9,10,2,0.25
260,run1,5706-15cc8601-ef29-4552-a43d-bdeec4b67fc6,3,1639593619105.0,1639593624712.0,1639593628526.0,1639593629778.0,10.673,5.607,5.066,2,2,True,0,[2],1639593623117:2,2,3,1,1,0.5
261,run1,4980-5c8ed6af-41f5-4cdb-a5b1-02ad7374d5e0,20,1639593622447.0,1639593627317.0,1639593628110.0,1639593628638.0,6.191,4.87,1.321,4,5,False,27,"[4, 1, 2]","1639593633445:4,1639593634033:1,1639593634394:2",3,5,6,3,0.75
262,run1,0577-d0f9764e-a392-49e8-ad05-34cfb0c92275,20,1639593614634.0,1639593628659.0,1639593621748.0,1639593634639.0,20.005,14.025,5.98,16,16,True,18,[4],1639593627041:4,1,15,14,1,0.0625
263,run1,5157-3d1a9fad-c10e-4a00-8c24-a22868d60b2d,12,1639593608606.0,1639593628922.0,1639593634424.0,1639593639133.0,30.527,20.316,10.211,9,9,True,30,"[1, 2, 2, 1, 1, 1, 1]","1639593495485:1,1639593496230:2,1639593496696:2,1639593497412:1,1639593498772:1,1639593499158:1,1639593499645:1",1,8,10,7,0.7777777777777778
264,run1,2515-ce45844d-b4fd-4433-9d4f-5244bcd8c2b1,12,1639593621159.0,1639593630213.0,1639593636777.0,1639593637926.0,16.767,9.054,7.713,4,4,True,15,[4],1639593627621:4,1,5,3,1,0.25
265,run1,0109-d3e47dfb-f202-4c77-8950-a58d3d313e5e,11,1639593622181.0,1639593630575.0,1639593634973.0,1639593643681.0,21.5,8.394,13.106,1,1,True,21,[1],1639593638207:1,2,2,3,1,1.0
266,run1,8185-ce4ab2f7-c672-4523-9431-48840a8f2dd3,2,1639593615907.0,1639593631294.0,1639593639436.0,1639593640659.0,24.752,15.387,9.365,5,3,False,0,"[3, 2]","1639593622408:3,1639593623415:2",3,3,4,2,0.4
267,run1,6505-1441f682-c593-4bdf-ba56-86382ce58058,21,1639593622899.0,1639593634887.0,1639593644176.0,1639593645347.0,22.448,11.988,10.46,7,7,True,45,"[1, 1, 1, 1, 1, 1, 1]","1639593631861:1,1639593632337:1,1639593632840:1,1639593633192:1,1639593633501:1,1639593633741:1,1639593633970:1",2,5,6,7,1.0
268,run1,5703-feaef934-e2d6-41af-b26b-aa639096547d,2,1639593626703.0,1639593635334.0,1639593640252.0,1639593642770.0,16.067,8.631,7.436,16,15,False,0,[2],1639593658375:2,2,15,14,1,0.0625
269,run1,4980-5c8ed6af-41f5-4cdb-a5b1-02ad7374d5e0,21,1639593630643.0,1639593635516.0,1639593636975.0,1639593637840.0,7.197,4.873,2.324,8,8,True,27,"[1, 4, 2]","1639593641527:1,1639593642112:4,1639593642529:2",2,9,7,3,0.375
270,run1,5706-15cc8601-ef29-4552-a43d-bdeec4b67fc6,4,1639593631783.0,1639593636793.0,1639593640167.0,1639593641404.0,9.621,5.01,4.611,4,3,False,3,[1],1639593635106:1,1,3,5,1,0.25
271,run1,8585-9aa44d59-f0bc-469a-9ae3-4c6bca30b069,5,1639593611379.0,1639593638741.0,1639593647371.0,1639593648075.0,36.696,27.362,9.334,9,9,True,12,"[4, 4, 1]","1639593621877:4,1639593622175:4,1639593622867:1",2,8,7,3,0.3333333333333333
272,run1,9405-503c0c48-b1d9-49d8-9da2-86a208ab837c,16,1639593621302.0,1639593639131.0,1639593644521.0,1639593645221.0,23.919,17.829,6.09,14,14,True,45,"[3, 2, 2, 2, 1, 2, 2]","1639593631851:3,1639593633017:2,1639593634762:2,1639593635351:2,1639593636465:1,1639593638598:2,1639593639174:2",3,13,12,7,0.5
273,run1,0100-0250f292-3528-41a0-9ef3-f871d00ec234,19,1639593633371.0,1639593640410.0,1639593643437.0,1639593646686.0,13.315,7.039,6.276,5,5,True,54,"[3, 2]","1639593637731:3,1639593638617:2",1,6,7,2,0.4
274,run1,8777-5775e5ea-92db-40a7-8381-9c5e6b710e24,4,1639593631553.0,1639593640854.0,1639593647505.0,1639593648353.0,16.8,9.301,7.499,7,6,False,3,[1],1639593651403:1,1,6,8,1,0.14285714285714285
275,run1,1910-999a012a-2df3-407f-9195-0d3ab6383c75,30,1639593631116.0,1639593643128.0,1639593655057.0,1639593655599.0,24.483,12.012,12.471,11,11,True,36,"[4, 4, 4, 4, 4, 4, 4, 4, 4, 4, 4]","1639593639234:4,1639593639467:4,1639593639756:4,1639593640310:4,1639593640564:4,1639593640838:4,1639593641331:4,1639593641592:4,1639593641860:4,1639593642361:4,1639593642691:4",2,10,12,11,1.0
276,run1,9838-da3885e8-773a-4253-8229-bd28dd512256,28,1639593630898.0,1639593644851.0,1639593649788.0,1639593650624.0,19.726,13.953,5.773,14,14,True,81,"[4, 4, 4, 2]","1639593642324:4,1639593642654:4,1639593642932:4,1639593645979:2",3,15,13,4,0.2857142857142857
277,run1,4980-5c8ed6af-41f5-4cdb-a5b1-02ad7374d5e0,22,1639593639844.0,1639593646383.0,1639593648019.0,1639593648713.0,8.869,6.539,2.33,15,15,True,30,"[4, 2, 2]","1639593650617:4,1639593651487:2,1639593652774:2",1,14,16,3,0.2
278,run1,5157-3d1a9fad-c10e-4a00-8c24-a22868d60b2d,13,1639593641140.0,1639593647563.0,1639593651233.0,1639593652080.0,10.94,6.423,4.517,1,1,True,33,[1],1639593522130:1,3,2,3,1,1.0
279,run1,5706-15cc8601-ef29-4552-a43d-bdeec4b67fc6,5,1639593643410.0,1639593648313.0,1639593651879.0,1639593653036.0,9.626,4.903,4.723,11,11,True,3,[4],1639593647156:4,3,12,10,1,0.09090909090909091
280,run1,2515-ce45844d-b4fd-4433-9d4f-5244bcd8c2b1,13,1639593639930.0,1639593650254.0,1639593655664.0,1639593657904.0,17.974,10.324,7.65,6,5,False,18,[2],1639593646428:2,3,5,4,1,0.16666666666666666
281,run1,0577-d0f9764e-a392-49e8-ad05-34cfb0c92275,21,1639593636649.0,1639593650257.0,1639593655658.0,1639593657604.0,20.955,13.608,7.347,14,12,False,21,[3],1639593640201:3,1,12,13,1,0.07142857142857142
282,run1,0137-3e1d73a9-6a65-4327-b3c0-11f6af207c24,11,1639593643879.0,1639593650483.0,1639593653359.0,1639593653983.0,10.104,6.604,3.5,3,3,True,30,[3],1639593655601:3,1,4,5,1,0.3333333333333333
283,run1,0109-d3e47dfb-f202-4c77-8950-a58d3d313e5e,12,1639593645709.0,1639593650546.0,1639593657824.0,1639593659439.0,13.73,4.837,8.893,4,4,True,24,[4],1639593658674:4,3,2,3,1,0.25
284,run1,5703-feaef934-e2d6-41af-b26b-aa639096547d,3,1639593644771.0,1639593652347.0,1639593658233.0,1639593659435.0,14.664,7.576,7.088,1,1,True,0,[1],1639593673873:1,1,3,2,1,1.0
285,run1,7367-2d612f2f-a1f4-4d6b-a5d5-7f54c0c15eac,4,1639593611054.0,1639593653550.0,1639593673385.0,1639593678675.0,67.621,42.496,25.125,12,12,True,9,"[4, 4, 4]","1639593646646:4,1639593646802:4,1639593647170:4",2,13,14,3,0.25
286,run1,9549-c1f18c59-6c49-47ae-8896-f452feff6da5,18,1639593637173.0,1639593653874.0,1639593669117.0,1639593669945.0,32.772,16.701,16.071,16,16,True,30,"[3, 3, 4, 4]","1639593647445:3,1639593650357:3,1639593653377:4,1639593654553:4",3,14,15,4,0.25
287,run1,4980-5c8ed6af-41f5-4cdb-a5b1-02ad7374d5e0,23,1639593650718.0,1639593654948.0,1639593659002.0,1639593659593.0,8.875,4.23,4.645,2,3,False,33,"[2, 4, 2]","1639593660784:2,1639593661547:4,1639593662185:2",2,1,3,3,1.5
288,run1,6505-1441f682-c593-4bdf-ba56-86382ce58058,22,1639593647366.0,1639593657152.0,1639593695239.0,1639593703247.0,55.881,9.786,46.095,15,14,False,48,"[1, 2, 2, 3, 1, 1, 2, 1, 1]","1639593651029:1,1639593651545:2,1639593651973:2,1639593653202:3,1639593654190:1,1639593654716:1,1639593655449:2,1639593655961:1,1639593656243:1",3,14,16,9,0.6
289,run1,5706-15cc8601-ef29-4552-a43d-bdeec4b67fc6,6,1639593655041.0,1639593659183.0,1639593661805.0,1639593663215.0,8.174,4.142,4.032,12,14,False,6,[4],1639593657715:4,3,13,14,1,0.08333333333333333
290,run1,9405-503c0c48-b1d9-49d8-9da2-86a208ab837c,17,1639593647223.0,1639593661396.0,1639593664233.0,1639593665130.0,17.907,14.173,3.734,7,7,True,48,"[2, 2, 3]","1639593656760:2,1639593657308:2,1639593658640:3",3,9,8,3,0.42857142857142855
291,run1,0100-0250f292-3528-41a0-9ef3-f871d00ec234,20,1639593648688.0,1639593661646.0,1639593669054.0,1639593677599.0,28.911,12.958,15.953,15,15,True,57,"[4, 4, 4, 3]","1639593654849:4,1639593658677:4,1639593660019:4,1639593660865:3",1,13,14,4,0.26666666666666666
292,run1,0137-3e1d73a9-6a65-4327-b3c0-11f6af207c24,12,1639593655985.0,1639593662285.0,1639593665599.0,1639593666287.0,10.302,6.3,4.002,4,4,True,33,[4],1639593666081:4,2,6,5,1,0.25
293,run1,9838-da3885e8-773a-4253-8229-bd28dd512256,29,1639593652626.0,1639593664573.0,1639593669293.0,1639593670239.0,17.613,11.947,5.666,9,9,True,84,"[4, 4, 1]","1639593665038:4,1639593665188:4,1639593665631:1",2,8,7,3,0.3333333333333333
294,run1,1910-999a012a-2df3-407f-9195-0d3ab6383c75,31,1639593657606.0,1639593665042.0,1639593668384.0,1639593669081.0,11.475,7.436,4.039,8,8,True,39,"[4, 4, 4, 4, 4, 4, 4, 4]","1639593662907:4,1639593663106:4,1639593663353:4,1639593663741:4,1639593663950:4,1639593664203:4,1639593664538:4,1639593664700:4",2,7,6,8,1.0
295,run1,0577-d0f9764e-a392-49e8-ad05-34cfb0c92275,22,1639593659616.0,1639593665128.0,1639593674288.0,1639593675758.0,16.142,5.512,10.63,5,6,False,21,[3],1639593663696:3,3,6,4,1,0.2
296,run1,5703-feaef934-e2d6-41af-b26b-aa639096547d,4,1639593661437.0,1639593665218.0,1639593674565.0,1639593676859.0,15.422,3.781,11.641,12,11,False,3,[3],1639593690219:3,3,10,11,1,0.08333333333333333
297,run1,4980-5c8ed6af-41f5-4cdb-a5b1-02ad7374d5e0,24,1639593661600.0,1639593666583.0,1639593668472.0,1639593669064.0,7.464,4.983,2.481,3,3,True,33,"[2, 2, 4]","1639593672791:2,1639593673072:2,1639593673650:4",3,4,2,3,1.0
298,run1,5706-15cc8601-ef29-4552-a43d-bdeec4b67fc6,7,1639593665221.0,1639593668880.0,1639593670230.0,1639593672228.0,7.007,3.659,3.348,3,3,True,6,[2],1639593667649:2,2,4,5,1,0.3333333333333333
299,run1,8777-5775e5ea-92db-40a7-8381-9c5e6b710e24,5,1639593650359.0,1639593670618.0,1639593677394.0,1639593680505.0,30.146,20.259,9.887,13,12,False,3,[4],1639593681782:4,3,11,12,1,0.07692307692307693
300,run1,8185-ce4ab2f7-c672-4523-9431-48840a8f2dd3,3,1639593642667.0,1639593671737.0,1639593697699.0,1639593699499.0,56.832,29.07,27.762,16,16,True,0,[4],1639593661658:4,1,15,14,1,0.0625
301,run1,5157-3d1a9fad-c10e-4a00-8c24-a22868d60b2d,14,1639593654085.0,1639593673842.0,1639593682460.0,1639593683537.0,29.452,19.757,9.695,8,8,True,36,"[1, 1, 1, 1, 3, 1]","1639593540148:1,1639593540710:1,1639593541584:1,1639593545336:1,1639593546385:3,1639593547204:1",3,9,7,6,0.75
302,run1,0109-d3e47dfb-f202-4c77-8950-a58d3d313e5e,13,1639593661441.0,1639593674624.0,1639593689870.0,1639593696009.0,34.568,13.183,21.385,8,9,False,27,[4],1639593680967:4,1,7,9,1,0.125
303,run1,4980-5c8ed6af-41f5-4cdb-a5b1-02ad7374d5e0,25,1639593671070.0,1639593675469.0,1639593676998.0,1639593677504.0,6.434,4.399,2.035,12,13,False,36,"[2, 2, 4]","1639593681692:2,1639593681909:2,1639593682599:4",3,13,14,3,0.25
304,run1,2515-ce45844d-b4fd-4433-9d4f-5244bcd8c2b1,14,1639593659910.0,1639593675681.0,1639593679730.0,1639593681823.0,21.913,15.771,6.142,16,15,False,18,[2],1639593671913:2,1,15,14,1,0.0625
305,run1,0137-3e1d73a9-6a65-4327-b3c0-11f6af207c24,13,1639593668293.0,1639593676220.0,1639593684563.0,1639593685399.0,17.106,7.927,9.179,7,7,True,36,"[4, 3]","1639593679549:4,1639593680043:3",2,8,6,2,0.2857142857142857
306,run1,9405-503c0c48-b1d9-49d8-9da2-86a208ab837c,18,1639593667134.0,1639593677649.0,1639593691041.0,1639593692165.0,25.031,10.515,14.516,12,12,True,51,"[3, 2, 2, 2, 3]","1639593673632:3,1639593675082:2,1639593675551:2,1639593676248:2,1639593677300:3",1,11,10,5,0.4166666666666667
307,run1,9549-c1f18c59-6c49-47ae-8896-f452feff6da5,19,1639593671951.0,1639593677904.0,1639593681690.0,1639593683672.0,11.721,5.953,5.768,2,2,True,33,[2],1639593677732:2,1,1,3,1,0.5
308,run1,5706-15cc8601-ef29-4552-a43d-bdeec4b67fc6,8,1639593674232.0,1639593678139.0,1639593680692.0,1639593681791.0,7.559,3.907,3.652,6,5,False,9,[4],1639593677130:4,3,7,5,1,0.16666666666666666
309,run1,1910-999a012a-2df3-407f-9195-0d3ab6383c75,32,1639593671086.0,1639593680371.0,1639593683811.0,1639593684393.0,13.307,9.285,4.022,16,15,False,42,"[4, 2, 2]","1639593679157:4,1639593679716:2,1639593679852:2",1,15,14,3,0.1875
310,run1,8585-9aa44d59-f0bc-469a-9ae3-4c6bca30b069,6,1639593650078.0,1639593682554.0,1639593735385.0,1639593736187.0,86.109,32.476,53.633,12,12,True,15,"[4, 4, 4]","1639593661281:4,1639593661867:4,1639593663378:4",1,11,13,3,0.25
311,run1,5703-feaef934-e2d6-41af-b26b-aa639096547d,5,1639593678863.0,1639593682896.0,1639593685841.0,1639593689084.0,10.221,4.033,6.188,3,2,False,3,[1],1639593707699:1,1,4,2,1,0.3333333333333333
312,run1,4980-5c8ed6af-41f5-4cdb-a5b1-02ad7374d5e0,26,1639593679509.0,1639593683158.0,1639593687823.0,1639593688315.0,8.806,3.649,5.157,10,9,False,36,"[2, 4, 2]","1639593689351:2,1639593689945:4,1639593690364:2",2,9,11,3,0.3
313,run1,0577-d0f9764e-a392-49e8-ad05-34cfb0c92275,23,1639593677765.0,1639593684008.0,1639593689238.0,1639593691018.0,13.253,6.243,7.01,6,6,True,21,[3],1639593682586:3,2,5,7,1,0.16666666666666666
314,run1,9838-da3885e8-773a-4253-8229-bd28dd512256,30,1639593672242.0,1639593684428.0,1639593687960.0,1639593690436.0,18.194,12.186,6.008,16,16,True,87,"[4, 4, 4, 4]","1639593683172:4,1639593683338:4,1639593683609:4,1639593685535:4",2,14,15,4,0.25
315,run1,0100-0250f292-3528-41a0-9ef3-f871d00ec234,21,1639593679601.0,1639593685045.0,1639593687814.0,1639593688743.0,9.142,5.444,3.698,2,2,True,60,[2],1639593681849:2,1,1,3,1,0.5
316,run1,5706-15cc8601-ef29-4552-a43d-bdeec4b67fc6,9,1639593683793.0,1639593687285.0,1639593694922.0,1639593696241.0,12.448,3.492,8.956,5,7,False,9,[4],1639593686283:4,3,7,6,1,0.2
317,run1,2515-ce45844d-b4fd-4433-9d4f-5244bcd8c2b1,15,1639593683828.0,1639593689407.0,1639593692673.0,1639593693616.0,9.788,5.579,4.209,3,3,True,18,[3],1639593687379:3,1,2,4,1,0.3333333333333333
318,run1,8777-5775e5ea-92db-40a7-8381-9c5e6b710e24,6,1639593682512.0,1639593690956.0,1639593692529.0,1639593693618.0,11.106,8.444,2.662,2,2,True,3,[2],1639593699821:2,3,3,4,1,0.5
319,run1,0137-3e1d73a9-6a65-4327-b3c0-11f6af207c24,14,1639593687400.0,1639593693819.0,1639593704951.0,1639593706061.0,18.661,6.419,12.242,8,8,True,39,"[4, 4]","1639593698597:4,1639593698787:4",1,7,6,2,0.25
320,run1,4980-5c8ed6af-41f5-4cdb-a5b1-02ad7374d5e0,27,1639593690320.0,1639593694988.0,1639593697011.0,1639593697681.0,7.361,4.668,2.693,16,16,True,36,"[2, 4, 2]","1639593701168:2,1639593701653:4,1639593702233:2",2,15,14,3,0.1875
321,run1,5703-feaef934-e2d6-41af-b26b-aa639096547d,6,1639593691086.0,1639593697365.0,1639593700813.0,1639593702363.0,11.277,6.279,4.998,13,15,False,3,[3],1639593720040:3,3,15,14,1,0.07692307692307693
322,run1,0089-84ef8c77-b491-4608-9f6f-f3b5bab1c2d8,4,1639593661226.0,1639593697682.0,1639593704808.0,1639593706195.0,44.969,36.456,8.513,12,13,False,6,[2],1639593671014:2,2,14,13,1,0.08333333333333333
323,run1,0577-d0f9764e-a392-49e8-ad05-34cfb0c92275,24,1639593693030.0,1639593697961.0,1639593708859.0,1639593710528.0,17.498,4.931,12.567,4,3,False,24,[3],1639593696413:3,3,5,3,1,0.25
324,run1,5706-15cc8601-ef29-4552-a43d-bdeec4b67fc6,10,1639593698246.0,1639593701704.0,1639593704262.0,1639593705136.0,6.89,3.458,3.432,16,14,False,9,[4],1639593700627:4,3,15,14,1,0.0625
325,run1,0100-0250f292-3528-41a0-9ef3-f871d00ec234,22,1639593690744.0,1639593702195.0,1639593716847.0,1639593717591.0,26.847,11.451,15.396,12,12,True,63,"[4, 4, 4]","1639593697424:4,1639593699304:4,1639593700968:4",2,13,14,3,0.25
326,run1,9405-503c0c48-b1d9-49d8-9da2-86a208ab837c,19,1639593694167.0,1639593704221.0,1639593714241.0,1639593714873.0,20.706,10.054,10.652,9,9,True,54,"[1, 2, 2, 1, 3]","1639593700049:1,1639593701257:2,1639593701753:2,1639593703046:1,1639593704352:3",2,10,11,5,0.5555555555555556
327,run1,9549-c1f18c59-6c49-47ae-8896-f452feff6da5,20,1639593685676.0,1639593706038.0,1639593720345.0,1639593721351.0,35.675,20.362,15.313,13,13,True,36,"[4, 4, 3, 1]","1639593698029:4,1639593698778:4,1639593704028:3,1639593706527:1",1,14,12,4,0.3076923076923077
328,run1,2515-ce45844d-b4fd-4433-9d4f-5244bcd8c2b1,16,1639593695622.0,1639593706279.0,1639593711435.0,1639593712658.0,17.036,10.657,6.379,8,9,False,21,[2],1639593703018:2,3,7,9,1,0.125
329,run1,9838-da3885e8-773a-4253-8229-bd28dd512256,31,1639593692437.0,1639593707959.0,1639593713011.0,1639593718666.0,26.229,15.522,10.707,13,13,True,90,"[4, 4, 4, 1]","1639593701986:4,1639593702139:4,1639593702279:4,1639593704107:1",2,14,15,4,0.3076923076923077
330,run1,6180-111bc9d5-f170-42d4-b25b-5a553e7d53f4,7,1639593680177.0,1639593708299.0,1639593751561.0,1639593762762.0,82.585,28.122,54.463,14,14,True,15,"[4, 4, 4, 2]","1639593703565:4,1639593704764:4,1639593705492:4,1639593706524:2",3,15,16,4,0.2857142857142857
331,run1,8777-5775e5ea-92db-40a7-8381-9c5e6b710e24,7,1639593695621.0,1639593708397.0,1639593711803.0,1639593712781.0,17.16,12.776,4.384,9,8,False,6,[2],1639593719325:2,3,8,10,1,0.1111111111111111
332,run1,4980-5c8ed6af-41f5-4cdb-a5b1-02ad7374d5e0,28,1639593699687.0,1639593708684.0,1639593710707.0,1639593711265.0,11.578,8.997,2.581,1,2,False,39,"[2, 2, 4]","1639593714356:2,1639593714959:2,1639593715676:4",3,3,2,3,3.0
333,run1,6505-1441f682-c593-4bdf-ba56-86382ce58058,23,1639593705264.0,1639593708743.0,1639593711444.0,1639593712794.0,7.53,3.479,4.051,1,1,True,48,[1],1639593707989:1,2,2,3,1,1.0
334,run1,8185-ce4ab2f7-c672-4523-9431-48840a8f2dd3,4,1639593701503.0,1639593711855.0,1639593730538.0,1639593731858.0,30.355,10.352,20.003,4,5,False,3,[4],1639593708737:4,2,5,3,1,0.25
335,run1,5706-15cc8601-ef29-4552-a43d-bdeec4b67fc6,11,1639593707141.0,1639593712539.0,1639593718220.0,1639593719442.0,12.301,5.398,6.903,9,8,False,9,[2],1639593711364:2,3,8,10,1,0.1111111111111111
336,run1,7367-2d612f2f-a1f4-4d6b-a5d5-7f54c0c15eac,5,1639593680676.0,1639593715382.0,1639593725696.0,1639593726596.0,45.92,34.706,11.214,10,10,True,12,"[4, 4, 2]","1639593707007:4,1639593707154:4,1639593708027:2",3,11,9,3,0.3
337,run1,5157-3d1a9fad-c10e-4a00-8c24-a22868d60b2d,15,1639593685542.0,1639593718213.0,1639593761891.0,1639593762910.0,77.368,32.671,44.697,15,15,True,39,"[3, 1, 2, 1, 1, 1, 1, 1, 1, 1, 1, 1]","1639593569720:3,1639593571168:1,1639593572425:2,1639593573990:1,1639593574285:1,1639593577647:1,1639593578099:1,1639593578536:1,1639593578986:1,1639593579960:1,1639593580417:1,1639593581020:1",3,14,16,12,0.8
338,run1,9838-da3885e8-773a-4253-8229-bd28dd512256,32,1639593720668.0,1639593724070.0,1639593729035.0,1639593729963.0,9.295,3.402,5.893,2,2,True,93,[2],1639593724815:2,2,1,3,1,0.5
339,run1,8777-5775e5ea-92db-40a7-8381-9c5e6b710e24,8,1639593714783.0,1639593724187.0,1639593729115.0,1639593729981.0,15.198,9.404,5.794,6,6,True,6,[2],1639593734437:2,2,7,8,1,0.16666666666666666
340,run1,0137-3e1d73a9-6a65-4327-b3c0-11f6af207c24,15,1639593708068.0,1639593724458.0,1639593737626.0,1639593738299.0,30.231,16.39,13.841,11,11,True,42,"[4, 4, 3]","1639593727767:4,1639593728363:4,1639593729411:3",3,10,12,3,0.2727272727272727
341,run1,2515-ce45844d-b4fd-4433-9d4f-5244bcd8c2b1,17,1639593714663.0,1639593724747.0,1639593729733.0,1639593730848.0,16.185,10.084,6.101,14,14,True,21,[2],1639593723745:2,3,15,13,1,0.07142857142857142
342,run1,0577-d0f9764e-a392-49e8-ad05-34cfb0c92275,25,1639593712541.0,1639593724824.0,1639593730778.0,1639593732518.0,19.977,12.283,7.694,13,11,False,24,[4],1639593723325:4,3,12,11,1,0.07692307692307693
343,run1,6505-1441f682-c593-4bdf-ba56-86382ce58058,24,1639593714800.0,1639593725037.0,1639593745816.0,1639593746829.0,32.029,10.237,21.792,9,8,False,51,"[3, 2, 1, 1, 1]","1639593719237:3,1639593722874:2,1639593723359:1,1639593724030:1,1639593724255:1",1,8,10,5,0.5555555555555556
344,run1,4980-5c8ed6af-41f5-4cdb-a5b1-02ad7374d5e0,29,1639593713270.0,1639593725450.0,1639593727832.0,1639593728550.0,15.28,12.18,3.1,13,13,True,39,"[2, 4, 2]","1639593731153:2,1639593731914:4,1639593732389:2",2,12,14,3,0.23076923076923078
345,run1,9405-503c0c48-b1d9-49d8-9da2-86a208ab837c,20,1639593716875.0,1639593726179.0,1639593731401.0,1639593733629.0,16.754,9.304,7.45,6,6,True,57,"[2, 2, 1, 1]","1639593724370:2,1639593724776:2,1639593725970:1,1639593726293:1",1,7,5,4,0.6666666666666666
346,run1,5703-feaef934-e2d6-41af-b26b-aa639096547d,7,1639593704365.0,1639593726265.0,1639593733900.0,1639593735616.0,31.251,21.9,9.351,11,11,True,3,[2],"1639593744793:2,1639593747940:3,1639593749242:del",2,12,10,1,0.09090909090909091
347,run1,5706-15cc8601-ef29-4552-a43d-bdeec4b67fc6,12,1639593721447.0,1639593726477.0,1639593733523.0,1639593734596.0,13.149,5.03,8.119,13,11,False,9,[2],1639593725551:2,2,11,12,1,0.07692307692307693
348,run1,0100-0250f292-3528-41a0-9ef3-f871d00ec234,23,1639593719594.0,1639593728420.0,1639593735206.0,1639593735823.0,16.229,8.826,7.403,13,13,True,66,"[4, 4, 4, 1]","1639593726670:4,1639593726822:4,1639593726972:4,1639593727582:1",3,15,14,4,0.3076923076923077
349,run1,9549-c1f18c59-6c49-47ae-8896-f452feff6da5,21,1639593723356.0,1639593730203.0,1639593733787.0,1639593734686.0,11.33,6.847,4.483,3,3,True,39,[3],1639593729916:3,2,4,5,1,0.3333333333333333
350,run1,0571-caba2284-4acc-4513-b489-cf90825c0b13,1,1639593719309.0,1639593730241.0,1639593737716.0,1639593739284.0,19.975,10.932,9.043,1,1,True,0,[1],1639593722403:1,2,2,3,1,1.0
351,run1,0089-84ef8c77-b491-4608-9f6f-f3b5bab1c2d8,5,1639593708198.0,1639593731841.0,1639593748552.0,1639593750759.0,42.561,23.643,18.918,16,15,False,6,"[3, 4]","1639593727686:3,1639593728886:4",3,15,14,2,0.125
352,run1,4980-5c8ed6af-41f5-4cdb-a5b1-02ad7374d5e0,30,1639593730552.0,1639593735082.0,1639593737477.0,1639593738868.0,8.316,4.53,3.786,5,5,True,42,"[2, 4, 2]","1639593741157:2,1639593741759:4,1639593742286:2",2,4,6,3,0.6
353,run1,5706-15cc8601-ef29-4552-a43d-bdeec4b67fc6,13,1639593736601.0,1639593740712.0,1639593745076.0,1639593746791.0,10.19,4.111,6.079,15,13,False,9,[1],1639593739574:1,1,13,14,1,0.06666666666666667
354,run1,9405-503c0c48-b1d9-49d8-9da2-86a208ab837c,21,1639593735634.0,1639593740863.0,1639593742661.0,1639593743381.0,7.747,5.229,2.518,2,2,True,60,[2],1639593740888:2,3,3,4,1,0.5
355,run1,8777-5775e5ea-92db-40a7-8381-9c5e6b710e24,9,1639593731985.0,1639593740886.0,1639593748529.0,1639593749383.0,17.398,8.901,8.497,16,16,True,9,[4],1639593751537:4,3,14,15,1,0.0625
356,run1,8185-ce4ab2f7-c672-4523-9431-48840a8f2dd3,5,1639593733859.0,1639593741404.0,1639593744317.0,1639593745339.0,11.48,7.545,3.935,2,3,False,3,[2],1639593738809:2,2,1,3,1,0.5
357,run1,5703-feaef934-e2d6-41af-b26b-aa639096547d,8,1639593737619.0,1639593741988.0,1639593747077.0,1639593748800.0,11.181,4.369,6.812,9,10,False,6,[1],1639593767216:1,1,10,11,1,0.1111111111111111
358,run1,7367-2d612f2f-a1f4-4d6b-a5d5-7f54c0c15eac,6,1639593728599.0,1639593742437.0,1639593752622.0,1639593753811.0,25.212,13.838,11.374,7,6,False,15,"[4, 3]","1639593740128:4,1639593740478:3",2,6,5,2,0.2857142857142857
359,run1,0109-d3e47dfb-f202-4c77-8950-a58d3d313e5e,14,1639593698010.0,1639593745013.0,1639593751069.0,1639593752961.0,54.951,47.003,7.948,15,16,False,27,[3],1639593743788:3,3,16,14,1,0.06666666666666667
360,run1,4980-5c8ed6af-41f5-4cdb-a5b1-02ad7374d5e0,31,1639593740872.0,1639593745082.0,1639593746451.0,1639593747105.0,6.233,4.21,2.023,14,13,False,45,"[4, 2, 2]","1639593751254:4,1639593751805:2,1639593752022:2",1,13,12,3,0.21428571428571427
361,run1,2515-ce45844d-b4fd-4433-9d4f-5244bcd8c2b1,18,1639593732853.0,1639593745088.0,1639593749455.0,1639593750506.0,17.653,12.235,5.418,15,15,True,24,[2],1639593743800:2,2,14,16,1,0.06666666666666667
362,run1,0577-d0f9764e-a392-49e8-ad05-34cfb0c92275,26,1639593734523.0,1639593746019.0,1639593752590.0,1639593754820.0,20.297,11.496,8.801,12,11,False,24,[3],1639593744482:3,3,13,11,1,0.08333333333333333
363,run1,0100-0250f292-3528-41a0-9ef3-f871d00ec234,24,1639593737825.0,1639593748018.0,1639593764355.0,1639593765283.0,27.458,10.193,17.265,11,11,True,69,"[4, 4, 3]","1639593743573:4,1639593744995:4,1639593746579:3",1,10,9,3,0.2727272727272727
364,run1,4980-5c8ed6af-41f5-4cdb-a5b1-02ad7374d5e0,32,1639593749109.0,1639593753530.0,1639593755579.0,1639593756114.0,7.005,4.421,2.584,7,7,True,45,"[2, 2, 4]","1639593759835:2,1639593760038:2,1639593760654:4",3,8,6,3,0.42857142857142855
365,run1,6505-1441f682-c593-4bdf-ba56-86382ce58058,25,1639593748831.0,1639593753582.0,1639593755938.0,1639593757616.0,8.785,4.751,4.034,3,3,True,51,"[1, 1, 1]","1639593751910:1,1639593752535:1,1639593752695:1",2,1,2,3,1.0
366,run1,8585-9aa44d59-f0bc-469a-9ae3-4c6bca30b069,7,1639593738190.0,1639593753846.0,1639593763611.0,1639593764235.0,26.045,15.656,10.389,13,13,True,18,"[4, 4, 4, 1]","1639593750198:4,1639593750628:4,1639593751166:4,1639593752371:1",3,12,11,4,0.3076923076923077
367,run1,5706-15cc8601-ef29-4552-a43d-bdeec4b67fc6,14,1639593748796.0,1639593754278.0,1639593759190.0,1639593760597.0,11.801,5.482,6.319,8,8,True,9,[4],1639593753060:4,3,7,9,1,0.125
368,run1,5703-feaef934-e2d6-41af-b26b-aa639096547d,9,1639593750803.0,1639593755369.0,1639593757808.0,1639593759098.0,8.295,4.566,3.729,10,9,False,6,[1],1639593780761:1,1,11,9,1,0.1
369,run1,9549-c1f18c59-6c49-47ae-8896-f452feff6da5,22,1639593736693.0,1639593755500.0,1639593773713.0,1639593775026.0,38.333,18.807,19.526,14,14,True,42,"[2, 3, 2, 2, 1, 2, 1, 1]","1639593743444:2,1639593744900:3,1639593745892:2,1639593749431:2,1639593753276:1,1639593755034:2,1639593756253:1,1639593756672:1",2,12,13,8,0.5714285714285714
370,run1,0137-3e1d73a9-6a65-4327-b3c0-11f6af207c24,16,1639593740301.0,1639593755575.0,1639593759527.0,1639593760125.0,19.824,15.274,4.55,15,15,True,45,"[4, 4, 4, 3]","1639593755905:4,1639593756421:4,1639593757335:4,1639593759034:3",2,14,16,4,0.26666666666666666
371,run1,9405-503c0c48-b1d9-49d8-9da2-86a208ab837c,22,1639593745385.0,1639593757210.0,1639593762289.0,1639593763145.0,17.76,11.825,5.935,10,10,True,63,"[3, 2, 3, 2]","1639593751641:3,1639593754433:2,1639593755641:3,1639593756701:2",1,9,8,4,0.4
372,run1,0109-d3e47dfb-f202-4c77-8950-a58d3d313e5e,15,1639593754962.0,1639593758273.0,1639593769261.0,1639593770430.0,15.468,3.311,12.157,3,3,True,27,[3],1639593766289:3,1,1,2,1,0.3333333333333333
373,run1,8777-5775e5ea-92db-40a7-8381-9c5e6b710e24,10,1639593751389.0,1639593759738.0,1639593762790.0,1639593763588.0,12.199,8.349,3.85,8,8,True,12,[2],1639593770399:2,2,10,9,1,0.125
374,run1,2515-ce45844d-b4fd-4433-9d4f-5244bcd8c2b1,19,1639593752511.0,1639593765580.0,1639593770501.0,1639593771644.0,19.133,13.069,6.064,9,10,False,27,[3],1639593761970:3,3,8,10,1,0.1111111111111111
375,run1,0577-d0f9764e-a392-49e8-ad05-34cfb0c92275,27,1639593756829.0,1639593766258.0,1639593778953.0,1639593780533.0,23.704,9.429,14.275,1,3,False,24,[2],"1639593759626:2,1639593761993:2,1639593762565:del,1639593762844:del,1639593764863:2",1,3,2,1,1.0
376,run1,6505-1441f682-c593-4bdf-ba56-86382ce58058,26,1639593759624.0,1639593766420.0,1639593769736.0,1639593770978.0,11.354,6.796,4.558,4,4,True,54,"[1, 2, 1]","1639593764661:1,1639593765244:2,1639593765500:1",1,5,3,3,0.75
377,run1,5706-15cc8601-ef29-4552-a43d-bdeec4b67fc6,15,1639593762603.0,1639593766565.0,1639593768436.0,1639593769659.0,7.056,3.962,3.094,14,14,True,12,[4],1639593765332:4,3,12,13,1,0.07142857142857142
378,run1,8185-ce4ab2f7-c672-4523-9431-48840a8f2dd3,6,1639593747348.0,1639593769434.0,1639593787218.0,1639593788579.0,41.231,22.086,19.145,13,14,False,3,[3],1639593765645:3,1,14,12,1,0.07692307692307693
379,run1,9405-503c0c48-b1d9-49d8-9da2-86a208ab837c,23,1639593765146.0,1639593771569.0,1639593774589.0,1639593775393.0,10.247,6.423,3.824,5,5,True,66,"[3, 2]","1639593770606:3,1639593771792:2",3,6,4,2,0.4
380,run1,5852-6db892ad-03f0-4f67-9f7d-059528c41e7f,1,1639593687415.0,1639593772388.0,1639593809613.0,1639593818173.0,130.758,84.973,45.785,11,11,True,0,"[2, 1, 3]","1639593758262:1,1639593760177:del,1639593766897:2,1639593767795:1,1639593768843:3",2,13,12,3,0.2727272727272727
381,run1,0100-0250f292-3528-41a0-9ef3-f871d00ec234,25,1639593767286.0,1639593772613.0,1639593774907.0,1639593775900.0,8.614,5.327,3.287,4,4,True,72,[4],1639593771489:4,2,2,3,1,0.25
382,run1,0137-3e1d73a9-6a65-4327-b3c0-11f6af207c24,17,1639593762128.0,1639593773987.0,1639593797102.0,1639593798130.0,36.002,11.859,24.143,14,14,True,48,"[4, 4, 4, 2]","1639593776787:4,1639593777653:4,1639593777981:4,1639593778979:2",2,15,16,4,0.2857142857142857
383,run1,7367-2d612f2f-a1f4-4d6b-a5d5-7f54c0c15eac,7,1639593755813.0,1639593775924.0,1639593806505.0,1639593807715.0,51.902,20.111,31.791,6,6,True,15,"[4, 2]","1639593774424:4,1639593774912:2",3,5,7,2,0.3333333333333333
384,run1,5706-15cc8601-ef29-4552-a43d-bdeec4b67fc6,16,1639593771665.0,1639593775959.0,1639593778058.0,1639593778752.0,7.087,4.294,2.793,1,2,False,15,[2],1639593774797:2,2,2,3,1,1.0
385,run1,5703-feaef934-e2d6-41af-b26b-aa639096547d,10,1639593761100.0,1639593776372.0,1639593779595.0,1639593781817.0,20.717,15.272,5.445,8,7,False,6,[1],1639593800739:1,1,6,7,1,0.125
386,run1,0089-84ef8c77-b491-4608-9f6f-f3b5bab1c2d8,6,1639593752761.0,1639593778281.0,1639593785797.0,1639593787655.0,34.894,25.52,9.374,2,2,True,6,"[1, 1]","1639593774951:1,1639593775350:1",2,1,3,2,1.0
387,run1,8585-9aa44d59-f0bc-469a-9ae3-4c6bca30b069,8,1639593766238.0,1639593780264.0,1639593785402.0,1639593786054.0,19.816,14.026,5.79,5,5,True,21,"[4, 1]","1639593777963:4,1639593778351:1",2,7,6,2,0.4
388,run1,0571-caba2284-4acc-4513-b489-cf90825c0b13,2,1639593741286.0,1639593780550.0,1639593789397.0,1639593790637.0,49.351,39.264,10.087,16,14,False,3,[2],1639593764731:2,2,14,15,1,0.0625
389,run1,2515-ce45844d-b4fd-4433-9d4f-5244bcd8c2b1,20,1639593773649.0,1639593783045.0,1639593787751.0,1639593788885.0,15.236,9.396,5.84,11,11,True,27,[1],1639593782053:1,1,9,10,1,0.09090909090909091
390,run1,0109-d3e47dfb-f202-4c77-8950-a58d3d313e5e,16,1639593772431.0,1639593784209.0,1639593797420.0,1639593800191.0,27.76,11.778,15.982,11,11,True,30,[3],1639593789818:3,3,10,9,1,0.09090909090909091
391,run1,5706-15cc8601-ef29-4552-a43d-bdeec4b67fc6,17,1639593780754.0,1639593784591.0,1639593786655.0,1639593787582.0,6.828,3.837,2.991,10,12,False,15,[1],1639593782964:1,1,11,12,1,0.1
392,run1,5157-3d1a9fad-c10e-4a00-8c24-a22868d60b2d,16,1639593764911.0,1639593785009.0,1639593796574.0,1639593797326.0,32.415,20.098,12.317,7,7,True,42,"[1, 1, 1, 1, 1, 1, 1]","1639593656712:1,1639593656958:1,1639593657172:1,1639593657369:1,1639593657567:1,1639593657764:1,1639593658769:1",3,8,6,7,1.0
393,run1,0100-0250f292-3528-41a0-9ef3-f871d00ec234,26,1639593777901.0,1639593787496.0,1639593794243.0,1639593798180.0,20.279,9.595,10.684,10,10,True,75,"[4, 4, 2]","1639593782173:4,1639593783143:4,1639593783828:2",3,12,11,3,0.3
394,run1,8777-5775e5ea-92db-40a7-8381-9c5e6b710e24,11,1639593765589.0,1639593789085.0,1639593791824.0,1639593792619.0,27.03,23.496,3.534,14,15,False,15,[3],"1639593788586:4,1639593792963:3,1639593795732:del,1639593796389:del,1639593798701:3",2,16,15,1,0.07142857142857142
395,run1,9405-503c0c48-b1d9-49d8-9da2-86a208ab837c,24,1639593777398.0,1639593792522.0,1639593817641.0,1639593818273.0,40.875,15.124,25.751,16,16,True,69,"[3, 2, 3, 1, 3, 4]","1639593783660:3,1639593785211:2,1639593786586:3,1639593789266:1,1639593790630:3,1639593792403:4",2,14,15,6,0.375
396,run1,5706-15cc8601-ef29-4552-a43d-bdeec4b67fc6,18,1639593789583.0,1639593793070.0,1639593795680.0,1639593796923.0,7.34,3.487,3.853,7,7,True,15,[1],1639593792107:1,1,8,9,1,0.14285714285714285
397,run1,6505-1441f682-c593-4bdf-ba56-86382ce58058,27,1639593772985.0,1639593793570.0,1639593831010.0,1639593831880.0,58.895,20.585,38.31,14,13,False,57,"[3, 2, 2, 1, 1, 1, 1]","1639593784092:3,1639593785355:2,1639593787013:2,1639593791450:1,1639593792122:1,1639593792571:1,1639593792879:1",3,13,15,7,0.5
398,run1,8585-9aa44d59-f0bc-469a-9ae3-4c6bca30b069,9,1639593788057.0,1639593794108.0,1639593797610.0,1639593798628.0,10.571,6.051,4.52,3,3,True,24,[3],1639593791285:3,2,4,5,1,0.3333333333333333
399,run1,5703-feaef934-e2d6-41af-b26b-aa639096547d,11,1639593783819.0,1639593794715.0,1639593802422.0,1639593805737.0,21.918,10.896,11.022,4,5,False,6,"[1, 1, 1, 1]","1639593816803:1,1639593817135:1,1639593817480:1,1639593817778:1",1,6,5,4,1.0
400,run1,6180-111bc9d5-f170-42d4-b25b-5a553e7d53f4,8,1639593764770.0,1639593794884.0,1639593825193.0,1639593826603.0,61.833,30.114,31.719,13,13,True,18,"[4, 4, 2, 3]","1639593777563:4,1639593777716:4,1639593781724:2,1639593781996:3",3,11,12,4,0.3076923076923077
401,run1,2515-ce45844d-b4fd-4433-9d4f-5244bcd8c2b1,21,1639593790889.0,1639593798896.0,1639593804624.0,1639593805751.0,14.862,8.007,6.855,7,7,True,30,[1],1639593797864:1,2,8,6,1,0.14285714285714285
402,run1,0577-d0f9764e-a392-49e8-ad05-34cfb0c92275,28,1639593782540.0,1639593799889.0,1639593811063.0,1639593812693.0,30.153,17.349,12.804,9,8,False,24,[3],1639593792839:3,2,10,8,1,0.1111111111111111
403,run1,8777-5775e5ea-92db-40a7-8381-9c5e6b710e24,12,1639593794621.0,1639593801898.0,1639593803463.0,1639593804201.0,9.58,7.277,2.303,1,1,True,15,[1],1639593812624:1,2,2,3,1,1.0
404,run1,5706-15cc8601-ef29-4552-a43d-bdeec4b67fc6,19,1639593798930.0,1639593802381.0,1639593805124.0,1639593806067.0,7.137,3.451,3.686,2,2,True,18,[2],1639593801245:2,2,3,1,1,0.5
405,run1,0100-0250f292-3528-41a0-9ef3-f871d00ec234,27,1639593800182.0,1639593804439.0,1639593806539.0,1639593808220.0,8.038,4.257,3.781,3,3,True,78,[3],1639593803311:3,2,2,1,1,0.3333333333333333
406,run1,8585-9aa44d59-f0bc-469a-9ae3-4c6bca30b069,10,1639593800631.0,1639593806790.0,1639593809543.0,1639593810235.0,9.604,6.159,3.445,2,2,True,27,[2],1639593805098:2,1,3,4,1,0.5
407,run1,0089-84ef8c77-b491-4608-9f6f-f3b5bab1c2d8,7,1639593789656.0,1639593808802.0,1639593820438.0,1639593821909.0,32.253,19.146,13.107,6,6,True,9,"[1, 1, 1, 1, 1, 1]","1639593797550:1,1639593797806:1,1639593798206:1,1639593798415:1,1639593798982:1,1639593799182:1",1,8,7,6,1.0
408,run1,0137-3e1d73a9-6a65-4327-b3c0-11f6af207c24,18,1639593800131.0,1639593810656.0,1639593813437.0,1639593813989.0,13.858,10.525,3.333,9,10,False,51,"[4, 4, 1]","1639593814130:4,1639593814408:4,1639593815128:1",1,10,8,3,0.3333333333333333
409,run1,5706-15cc8601-ef29-4552-a43d-bdeec4b67fc6,20,1639593808069.0,1639593812643.0,1639593816456.0,1639593817411.0,9.342,4.574,4.768,4,3,False,21,[2],1639593811458:2,2,3,5,1,0.25
410,run1,0571-caba2284-4acc-4513-b489-cf90825c0b13,3,1639593792645.0,1639593812744.0,1639593817737.0,1639593819196.0,26.551,20.099,6.452,11,11,True,3,[1],1639593809327:1,1,13,12,1,0.09090909090909091
411,run1,5157-3d1a9fad-c10e-4a00-8c24-a22868d60b2d,17,1639593799328.0,1639593814038.0,1639593823494.0,1639593824400.0,25.072,14.71,10.362,12,12,True,45,"[3, 1, 1, 1, 2, 2, 1, 1]","1639593681785:3,1639593682442:1,1639593682961:1,1639593686130:1,1639593687084:2,1639593687415:2,1639593688333:1,1639593688600:1",1,11,10,8,0.6666666666666666
412,run1,0109-d3e47dfb-f202-4c77-8950-a58d3d313e5e,17,1639593802193.0,1639593814861.0,1639593841477.0,1639593843202.0,41.009,12.668,28.341,12,12,True,33,[4],1639593822184:4,3,11,10,1,0.08333333333333333
413,run1,0100-0250f292-3528-41a0-9ef3-f871d00ec234,28,1639593810223.0,1639593815115.0,1639593820828.0,1639593826172.0,15.949,4.892,11.057,7,7,True,81,"[3, 4]","1639593814052:3,1639593814314:4",2,8,9,2,0.2857142857142857
414,run1,5703-feaef934-e2d6-41af-b26b-aa639096547d,12,1639593807740.0,1639593816733.0,1639593818538.0,1639593819471.0,11.731,8.993,2.738,2,2,True,6,"[1, 1]","1639593840083:1,1639593841969:1",3,1,3,2,1.0
415,run1,7367-2d612f2f-a1f4-4d6b-a5d5-7f54c0c15eac,8,1639593809902.0,1639593818541.0,1639593833555.0,1639593834796.0,24.894,8.639,16.255,4,4,True,18,[4],1639593817060:4,3,5,3,1,0.25
416,run1,2515-ce45844d-b4fd-4433-9d4f-5244bcd8c2b1,22,1639593807756.0,1639593818989.0,1639593832333.0,1639593833432.0,25.676,11.233,14.443,12,12,True,33,[2],1639593817878:2,1,11,13,1,0.08333333333333333
417,run1,0137-3e1d73a9-6a65-4327-b3c0-11f6af207c24,19,1639593815991.0,1639593820825.0,1639593822578.0,1639593823349.0,7.358,4.834,2.524,2,2,True,51,[2],1639593824708:2,2,4,3,1,0.5
418,run1,0577-d0f9764e-a392-49e8-ad05-34cfb0c92275,29,1639593814704.0,1639593821368.0,1639593851978.0,1639593853149.0,38.445,6.664,31.781,11,12,False,24,[2],1639593819898:2,2,13,12,1,0.09090909090909091
419,run1,8777-5775e5ea-92db-40a7-8381-9c5e6b710e24,13,1639593806203.0,1639593822097.0,1639593824117.0,1639593825123.0,18.92,15.894,3.026,10,10,True,18,[2],"1639593828378:3,1639593832311:del,1639593833494:2",1,11,9,1,0.1
420,run1,5706-15cc8601-ef29-4552-a43d-bdeec4b67fc6,21,1639593819413.0,1639593822906.0,1639593824861.0,1639593827632.0,8.219,3.493,4.726,11,10,False,21,[1],1639593821820:1,1,10,12,1,0.09090909090909091
421,run1,9405-503c0c48-b1d9-49d8-9da2-86a208ab837c,25,1639593820278.0,1639593826059.0,1639593828097.0,1639593828909.0,8.631,5.781,2.85,4,4,True,72,[4],1639593826160:4,1,3,2,1,0.25
422,run1,8185-ce4ab2f7-c672-4523-9431-48840a8f2dd3,7,1639593790588.0,1639593828093.0,1639593843739.0,1639593849379.0,58.791,37.505,21.286,10,10,True,3,[3],"1639593815683:4,1639593820544:del,1639593824346:3",1,9,11,1,0.1
423,run1,0137-3e1d73a9-6a65-4327-b3c0-11f6af207c24,20,1639593825351.0,1639593832157.0,1639593833855.0,1639593835123.0,9.772,6.806,2.966,6,6,True,54,"[3, 3]","1639593836050:3,1639593836220:3",1,7,8,2,0.3333333333333333
424,run1,5706-15cc8601-ef29-4552-a43d-bdeec4b67fc6,22,1639593829639.0,1639593833175.0,1639593838425.0,1639593839531.0,9.892,3.536,6.356,12,13,False,21,[4],1639593832235:4,3,13,11,1,0.08333333333333333
425,run1,0571-caba2284-4acc-4513-b489-cf90825c0b13,4,1639593821197.0,1639593836577.0,1639593839696.0,1639593840796.0,19.599,15.38,4.219,4,4,True,6,[4],1639593834401:4,2,3,2,1,0.25
426,run1,5703-feaef934-e2d6-41af-b26b-aa639096547d,13,1639593821473.0,1639593836626.0,1639593857490.0,1639593858296.0,36.823,15.153,21.67,15,15,True,9,"[1, 1, 1, 1, 1, 1, 1, 1, 1, 1, 1, 1, 1, 1, 1]","1639593856841:1,1639593857189:1,1639593857527:1,1639593857852:1,1639593858189:1,1639593858538:1,1639593858865:1,1639593859237:1,1639593859624:1,1639593859999:1,1639593860407:1,1639593860791:1,1639593861245:1,1639593861689:1,1639593862123:1",2,16,14,15,1.0
427,run1,8777-5775e5ea-92db-40a7-8381-9c5e6b710e24,14,1639593827126.0,1639593837167.0,1639593840061.0,1639593841221.0,14.095,10.041,4.054,4,4,True,21,[4],1639593846774:4,3,3,5,1,0.25
428,run1,5157-3d1a9fad-c10e-4a00-8c24-a22868d60b2d,18,1639593826405.0,1639593837574.0,1639593840272.0,1639593841247.0,14.842,11.169,3.673,4,4,True,48,"[1, 1, 1, 1]","1639593707263:1,1639593708769:1,1639593709376:1,1639593710394:1",2,3,5,4,1.0
429,run1,0100-0250f292-3528-41a0-9ef3-f871d00ec234,29,1639593828176.0,1639593839600.0,1639593850060.0,1639593850797.0,22.621,11.424,11.197,16,16,True,84,"[4, 4, 4, 4]","1639593835668:4,1639593835803:4,1639593837942:4,1639593838124:4",1,15,14,4,0.25
430,run1,6505-1441f682-c593-4bdf-ba56-86382ce58058,28,1639593833881.0,1639593840163.0,1639593846748.0,1639593847640.0,13.759,6.282,7.477,5,5,True,57,"[1, 1, 1, 1, 1]","1639593838461:1,1639593838621:1,1639593838810:1,1639593838980:1,1639593839211:1",1,4,3,5,1.0
431,run1,2515-ce45844d-b4fd-4433-9d4f-5244bcd8c2b1,23,1639593835440.0,1639593840448.0,1639593844569.0,1639593845592.0,10.152,5.008,5.144,1,1,True,36,[1],1639593838167:1,2,2,3,1,1.0
432,run1,6180-111bc9d5-f170-42d4-b25b-5a553e7d53f4,9,1639593828609.0,1639593843871.0,1639593864362.0,1639593865649.0,37.04,15.262,21.778,10,10,True,21,"[4, 4, 2]","1639593841524:4,1639593841676:4,1639593842140:2",1,9,11,3,0.3
433,run1,5706-15cc8601-ef29-4552-a43d-bdeec4b67fc6,23,1639593841537.0,1639593845326.0,1639593848336.0,1639593849480.0,7.943,3.789,4.154,3,2,False,21,[1],1639593844202:1,1,2,4,1,0.3333333333333333
434,run1,0137-3e1d73a9-6a65-4327-b3c0-11f6af207c24,21,1639593837124.0,1639593847552.0,1639593849221.0,1639593850660.0,13.536,10.428,3.108,12,12,True,57,"[4, 4, 4]","1639593851684:4,1639593852056:4,1639593852477:4",3,13,14,3,0.25
435,run1,8585-9aa44d59-f0bc-469a-9ae3-4c6bca30b069,11,1639593812238.0,1639593849778.0,1639593866056.0,1639593866721.0,54.483,37.54,16.943,16,16,True,30,"[4, 4, 4, 4]","1639593845768:4,1639593846610:4,1639593847744:4,1639593848496:4",2,14,15,4,0.25
436,run1,5157-3d1a9fad-c10e-4a00-8c24-a22868d60b2d,19,1639593843251.0,1639593850850.0,1639593857423.0,1639593858301.0,15.05,7.599,7.451,5,5,True,51,"[1, 3, 1]","1639593723262:1,1639593724249:3,1639593724967:1",2,6,4,3,0.6
437,run1,8777-5775e5ea-92db-40a7-8381-9c5e6b710e24,15,1639593843223.0,1639593851214.0,1639593852867.0,1639593853691.0,10.468,7.991,2.477,5,4,False,24,[4],1639593861612:4,2,3,4,1,0.2
438,run1,0089-84ef8c77-b491-4608-9f6f-f3b5bab1c2d8,8,1639593823911.0,1639593852997.0,1639593867193.0,1639593868461.0,44.55,29.086,15.464,9,9,True,12,"[1, 1, 1, 1, 1, 1, 1, 1, 1]","1639593841846:1,1639593842279:1,1639593842710:1,1639593843134:1,1639593843671:1,1639593844110:1,1639593844654:1,1639593845094:1,1639593845646:1",3,7,8,9,1.0
439,run1,5706-15cc8601-ef29-4552-a43d-bdeec4b67fc6,24,1639593851481.0,1639593855026.0,1639593857703.0,1639593858678.0,7.197,3.545,3.652,6,8,False,21,[2],1639593853884:2,2,8,7,1,0.16666666666666666
440,run1,0571-caba2284-4acc-4513-b489-cf90825c0b13,5,1639593842814.0,1639593855121.0,1639593862977.0,1639593864075.0,21.261,12.307,8.954,13,15,False,9,[3],1639593850773:3,3,14,15,1,0.07692307692307693
441,run1,6505-1441f682-c593-4bdf-ba56-86382ce58058,29,1639593849646.0,1639593857635.0,1639593872240.0,1639593873165.0,23.519,7.989,15.53,8,8,True,60,"[1, 1, 1, 1, 1, 1, 1, 1]","1639593852587:1,1639593852991:1,1639593853340:1,1639593855080:1,1639593855898:1,1639593856243:1,1639593856594:1,1639593856861:1",1,7,9,8,1.0
442,run1,0100-0250f292-3528-41a0-9ef3-f871d00ec234,30,1639593852799.0,1639593859497.0,1639593867620.0,1639593868516.0,15.717,6.698,9.019,8,8,True,87,"[4, 4]","1639593858208:4,1639593858343:4",3,9,7,2,0.25
