,iterationName,gameID,trialNum,trialStartTime,submitTime,clickedTime,confirmTime,totalTrialDuration,PT,RT,cardinality,clicked,correct,score,symbols,symbolsProcess,targetLoc,d1,d2,messageLength,tokenRatio
0,run1,6505-1441f682-c593-4bdf-ba56-86382ce58058,1,1639593130063.0,1639593140030.0,1639593148505.0,1639593153259.0,23.196,9.967,13.229,16,16,True,0,[2],1639593139073:2,3,15,14,1,0.0625
2,run1,0100-0250f292-3528-41a0-9ef3-f871d00ec234,1,1639593161655.0,1639593166285.0,1639593171090.0,1639593172616.0,10.961,4.63,6.331,1,1,True,0,[1],1639593164986:1,3,3,2,1,1.0
4,run1,6505-1441f682-c593-4bdf-ba56-86382ce58058,2,1639593155267.0,1639593171957.0,1639593183640.0,1639593185354.0,30.087,16.69,13.397,10,10,True,3,"[3, 4, 2]","1639593164161:3,1639593164942:4,1639593170378:2",2,8,9,3,0.3
6,run1,0100-0250f292-3528-41a0-9ef3-f871d00ec234,2,1639593174620.0,1639593184650.0,1639593191464.0,1639593192376.0,17.756,10.03,7.726,6,6,True,3,"[4, 2]","1639593179884:4,1639593180975:2",2,5,7,2,0.3333333333333333
8,run1,9405-503c0c48-b1d9-49d8-9da2-86a208ab837c,1,1639593174665.0,1639593194693.0,1639593202574.0,1639593204366.0,29.701,20.028,9.673,7,7,True,0,"[3, 3, 1]","1639593186141:3,1639593186790:3,1639593187990:1",3,9,8,3,0.42857142857142855
9,run1,6505-1441f682-c593-4bdf-ba56-86382ce58058,3,1639593187356.0,1639593194949.0,1639593204316.0,1639593206043.0,18.687,7.593,11.094,13,15,False,6,"[2, 3]","1639593191201:2,1639593193362:3",2,14,15,2,0.15384615384615385
11,run1,0100-0250f292-3528-41a0-9ef3-f871d00ec234,3,1639593194378.0,1639593203727.0,1639593215714.0,1639593217138.0,22.76,9.349,13.411,5,5,True,6,"[2, 3]","1639593199597:2,1639593199925:3",2,6,4,2,0.4
14,run1,5157-3d1a9fad-c10e-4a00-8c24-a22868d60b2d,1,1639593192740.0,1639593214427.0,1639593247411.0,1639593249670.0,56.93,21.687,35.243,12,13,False,0,"[4, 2, 1, 1, 1, 2, 2]","1639593078658:4,1639593081350:2,1639593084971:1,1639593085862:1,1639593087285:1,1639593088129:2,1639593088879:2",3,11,13,7,0.5833333333333334
15,run1,6505-1441f682-c593-4bdf-ba56-86382ce58058,4,1639593208051.0,1639593218099.0,1639593226445.0,1639593228668.0,20.617,10.048,10.569,6,4,False,6,"[2, 2]","1639593216628:2,1639593216865:2",1,5,4,2,0.3333333333333333
16,run1,9838-da3885e8-773a-4253-8229-bd28dd512256,1,1639593214908.0,1639593225976.0,1639593234275.0,1639593235750.0,20.842,11.068,9.774,10,10,True,0,"[4, 4, 2]","1639593225025:4,1639593225886:4,1639593226342:2",1,11,9,3,0.3
18,run1,9838-da3885e8-773a-4253-8229-bd28dd512256,2,1639593237755.0,1639593241824.0,1639593243781.0,1639593244902.0,7.147,4.069,3.078,1,1,True,3,[1],1639593242194:1,2,2,3,1,1.0
19,run1,6505-1441f682-c593-4bdf-ba56-86382ce58058,5,1639593230674.0,1639593242368.0,1639593251504.0,1639593253341.0,22.667,11.694,10.973,7,8,False,6,"[3, 1, 1, 2]","1639593238618:3,1639593239365:1,1639593240272:1,1639593240987:2",3,6,8,4,0.5714285714285714
22,run1,9405-503c0c48-b1d9-49d8-9da2-86a208ab837c,2,1639593206370.0,1639593249409.0,1639593257625.0,1639593259349.0,52.979,43.039,9.94,12,12,True,3,"[1, 3, 2, 4, 2]","1639593232756:1,1639593240213:3,1639593241387:2,1639593242892:4,1639593244509:2",3,13,11,5,0.4166666666666667
24,run1,9838-da3885e8-773a-4253-8229-bd28dd512256,3,1639593246904.0,1639593252251.0,1639593256837.0,1639593257718.0,10.814,5.347,5.467,6,6,True,6,"[3, 3]","1639593252890:3,1639593253155:3",1,8,7,2,0.3333333333333333
27,run1,5157-3d1a9fad-c10e-4a00-8c24-a22868d60b2d,2,1639593251676.0,1639593261713.0,1639593268698.0,1639593270553.0,18.877,10.037,8.84,4,4,True,0,"[2, 1, 1]","1639593133556:2,1639593135350:1,1639593135808:1",2,3,2,3,0.75
28,run1,9838-da3885e8-773a-4253-8229-bd28dd512256,4,1639593259721.0,1639593265080.0,1639593267583.0,1639593269048.0,9.327,5.359,3.968,4,4,True,9,"[2, 2]","1639593265845:2,1639593266018:2",2,3,2,2,0.5
30,run1,6505-1441f682-c593-4bdf-ba56-86382ce58058,6,1639593255344.0,1639593274414.0,1639593283147.0,1639593284495.0,29.151,19.07,10.081,15,14,False,6,"[2, 4, 2, 2, 2, 1, 3]","1639593265641:2,1639593267751:4,1639593268836:2,1639593269662:2,1639593270608:2,1639593271435:1,1639593273001:3",1,16,14,7,0.4666666666666667
31,run1,0100-0250f292-3528-41a0-9ef3-f871d00ec234,4,1639593219141.0,1639593274773.0,1639593301842.0,1639593302922.0,83.781,55.632,28.149,15,15,True,9,"[4, 1, 4, 1, 4, 1]","1639593223750:4,1639593226681:4,1639593237011:1,1639593241186:4,1639593241676:1,1639593243251:1,1639593244329:4,1639593250403:del,1639593251808:del,1639593251941:del,1639593252061:del,1639593252186:del,1639593252323:del,1639593252464:del,1639593253055:4,1639593253584:1,1639593254937:4,1639593255557:1,1639593256101:4,1639593256747:1,1639593264506:1,1639593273633:del",2,16,14,6,0.4
33,run1,9405-503c0c48-b1d9-49d8-9da2-86a208ab837c,3,1639593261352.0,1639593281290.0,1639593292497.0,1639593293785.0,32.433,19.938,12.495,9,9,True,6,"[1, 3, 4, 1]","1639593270075:1,1639593276367:3,1639593277243:4,1639593278490:1",2,10,11,4,0.4444444444444444
35,run1,9838-da3885e8-773a-4253-8229-bd28dd512256,5,1639593271053.0,1639593287964.0,1639593294184.0,1639593296540.0,25.487,16.911,8.576,15,15,True,12,"[4, 4, 4, 3]","1639593285533:4,1639593286019:4,1639593288125:4,1639593288762:3",3,16,14,4,0.26666666666666666
37,run1,5157-3d1a9fad-c10e-4a00-8c24-a22868d60b2d,3,1639593272558.0,1639593289649.0,1639593295388.0,1639593297117.0,24.559,17.091,7.468,5,5,True,3,"[1, 1, 2, 1]","1639593161012:1,1639593162313:1,1639593163157:2,1639593163815:1",1,4,3,4,0.8
39,run1,6505-1441f682-c593-4bdf-ba56-86382ce58058,7,1639593286502.0,1639593291828.0,1639593295049.0,1639593296097.0,9.595,5.326,4.269,1,1,True,6,[1],1639593290413:1,2,2,3,1,1.0
43,run1,6180-111bc9d5-f170-42d4-b25b-5a553e7d53f4,1,1639593283487.0,1639593302033.0,1639593365055.0,1639593387688.0,104.201,18.546,85.655,11,13,False,0,"[4, 4, 2]","1639593293949:4,1639593294596:4,1639593298084:2",2,13,12,3,0.2727272727272727
45,run1,9405-503c0c48-b1d9-49d8-9da2-86a208ab837c,4,1639593295788.0,1639593306351.0,1639593311237.0,1639593312225.0,16.437,10.563,5.874,6,6,True,9,"[2, 2, 2]","1639593305762:2,1639593305980:2,1639593306256:2",2,5,7,3,0.5
46,run1,6505-1441f682-c593-4bdf-ba56-86382ce58058,8,1639593298106.0,1639593308029.0,1639593317105.0,1639593318299.0,20.193,9.923,10.27,9,9,True,9,"[1, 1, 1, 3, 1, 1, 1]","1639593303276:1,1639593304241:1,1639593304687:1,1639593305772:3,1639593306466:1,1639593306786:1,1639593306977:1",3,10,8,7,0.7777777777777778
47,run1,9838-da3885e8-773a-4253-8229-bd28dd512256,6,1639593298541.0,1639593308693.0,1639593312960.0,1639593313853.0,15.312,10.152,5.16,11,11,True,15,"[4, 4, 3]","1639593307619:4,1639593307995:4,1639593309566:3",3,10,12,3,0.2727272727272727
48,run1,0100-0250f292-3528-41a0-9ef3-f871d00ec234,5,1639593304924.0,1639593309026.0,1639593311618.0,1639593313412.0,8.488,4.102,4.386,2,2,True,12,[2],1639593307935:2,3,1,3,1,0.5
53,run1,9838-da3885e8-773a-4253-8229-bd28dd512256,7,1639593315855.0,1639593319317.0,1639593321300.0,1639593322182.0,6.327,3.462,2.865,3,3,True,18,[3],1639593320153:3,1,5,4,1,0.3333333333333333
54,run1,5157-3d1a9fad-c10e-4a00-8c24-a22868d60b2d,4,1639593299121.0,1639593319585.0,1639593336052.0,1639593337475.0,38.354,20.464,17.89,10,10,True,6,"[1, 1, 3, 2, 1, 2]","1639593184813:1,1639593186724:1,1639593189307:3,1639593190656:2,1639593191832:1,1639593192645:2",2,11,12,6,0.6
56,run1,9405-503c0c48-b1d9-49d8-9da2-86a208ab837c,5,1639593314230.0,1639593321092.0,1639593324389.0,1639593325514.0,11.284,6.862,4.422,2,2,True,12,[2],1639593319501:2,3,4,3,1,0.5
57,run1,6505-1441f682-c593-4bdf-ba56-86382ce58058,9,1639593320305.0,1639593326184.0,1639593329846.0,1639593331083.0,10.778,5.879,4.899,3,3,True,12,"[1, 1, 1]","1639593324926:1,1639593325125:1,1639593325290:1",1,4,5,3,1.0
59,run1,9838-da3885e8-773a-4253-8229-bd28dd512256,8,1639593324184.0,1639593329516.0,1639593332575.0,1639593333458.0,9.274,5.332,3.942,5,5,True,21,"[4, 1]","1639593329871:4,1639593330400:1",3,4,6,2,0.4
65,run1,2515-ce45844d-b4fd-4433-9d4f-5244bcd8c2b1,1,1639593323317.0,1639593339479.0,1639593347610.0,1639593352987.0,29.67,16.162,13.508,14,12,False,0,[1],1639593333119:1,2,12,13,1,0.07142857142857142
66,run1,6505-1441f682-c593-4bdf-ba56-86382ce58058,10,1639593333092.0,1639593340382.0,1639593342939.0,1639593344416.0,11.324,7.29,4.034,4,4,True,15,"[1, 1, 1, 1]","1639593338222:1,1639593338753:1,1639593339062:1,1639593339348:1",2,3,5,4,1.0
67,run1,0100-0250f292-3528-41a0-9ef3-f871d00ec234,6,1639593315414.0,1639593342099.0,1639593353077.0,1639593353724.0,38.31,26.685,11.625,12,12,True,15,"[4, 4, 4]","1639593327335:4,1639593327649:4,1639593328239:4",3,13,14,3,0.25
69,run1,9838-da3885e8-773a-4253-8229-bd28dd512256,9,1639593335461.0,1639593344353.0,1639593348286.0,1639593349231.0,13.77,8.892,4.878,7,7,True,24,"[3, 3, 1]","1639593344550:3,1639593344747:3,1639593345386:1",1,8,6,3,0.42857142857142855
71,run1,9405-503c0c48-b1d9-49d8-9da2-86a208ab837c,6,1639593327516.0,1639593345483.0,1639593356225.0,1639593357189.0,29.673,17.967,11.706,10,10,True,15,"[2, 3, 1, 3, 1]","1639593336444:2,1639593337559:3,1639593339652:1,1639593340977:3,1639593342228:1",2,8,9,5,0.5
77,run1,9838-da3885e8-773a-4253-8229-bd28dd512256,10,1639593351234.0,1639593359770.0,1639593366619.0,1639593367508.0,16.274,8.536,7.738,12,12,True,27,"[4, 4, 4]","1639593360230:4,1639593360490:4,1639593360761:4",1,11,13,3,0.25
78,run1,5157-3d1a9fad-c10e-4a00-8c24-a22868d60b2d,5,1639593339478.0,1639593362956.0,1639593376116.0,1639593380547.0,41.069,23.478,17.591,11,11,True,9,"[3, 2, 2, 2, 2]","1639593222551:3,1639593225000:2,1639593226333:2,1639593229032:2,1639593229331:2",1,10,12,5,0.45454545454545453
79,run1,6505-1441f682-c593-4bdf-ba56-86382ce58058,11,1639593346424.0,1639593363570.0,1639593382800.0,1639593383812.0,37.388,17.146,20.242,14,14,True,18,"[1, 2, 3, 1, 2, 2, 1, 1, 1]","1639593355051:1,1639593355722:2,1639593357114:3,1639593357911:1,1639593358893:2,1639593360007:2,1639593362088:1,1639593362396:1,1639593362603:1",3,13,15,9,0.6428571428571429
81,run1,9405-503c0c48-b1d9-49d8-9da2-86a208ab837c,7,1639593359194.0,1639593368891.0,1639593371797.0,1639593372593.0,13.399,9.697,3.702,5,5,True,18,"[2, 3]","1639593365258:2,1639593366340:3",3,4,6,2,0.4
82,run1,0100-0250f292-3528-41a0-9ef3-f871d00ec234,7,1639593355727.0,1639593369860.0,1639593386045.0,1639593386749.0,31.022,14.133,16.889,13,13,True,18,"[4, 4, 3, 2]","1639593365510:4,1639593365792:4,1639593368330:3,1639593369050:2",2,12,14,4,0.3076923076923077
85,run1,2515-ce45844d-b4fd-4433-9d4f-5244bcd8c2b1,2,1639593354988.0,1639593372721.0,1639593387952.0,1639593389207.0,34.219,17.733,16.486,15,15,True,0,[2],1639593366384:2,2,16,14,1,0.06666666666666667
86,run1,9838-da3885e8-773a-4253-8229-bd28dd512256,11,1639593369510.0,1639593376376.0,1639593378905.0,1639593379831.0,10.321,6.866,3.455,8,8,True,30,"[4, 4]","1639593376763:4,1639593376944:4",1,7,9,2,0.25
87,run1,0089-84ef8c77-b491-4608-9f6f-f3b5bab1c2d8,1,1639593349674.0,1639593377793.0,1639593402156.0,1639593413723.0,64.049,28.119,35.93,8,8,True,0,[3],1639593363870:3,1,9,10,1,0.125
93,run1,5157-3d1a9fad-c10e-4a00-8c24-a22868d60b2d,6,1639593382553.0,1639593391302.0,1639593394589.0,1639593396377.0,13.824,8.749,5.075,3,3,True,12,"[1, 2]","1639593264086:1,1639593264865:2",3,4,2,2,0.6666666666666666
94,run1,9838-da3885e8-773a-4253-8229-bd28dd512256,12,1639593381841.0,1639593392167.0,1639593398299.0,1639593399771.0,17.93,10.326,7.604,14,14,True,33,"[4, 4, 4, 2]","1639593391315:4,1639593391576:4,1639593392678:4,1639593393142:2",1,13,15,4,0.2857142857142857
95,run1,6505-1441f682-c593-4bdf-ba56-86382ce58058,12,1639593385813.0,1639593393474.0,1639593403974.0,1639593405176.0,19.363,7.661,11.702,5,5,True,21,"[1, 3, 1]","1639593390624:1,1639593392059:3,1639593392666:1",1,6,4,3,0.6
99,run1,9405-503c0c48-b1d9-49d8-9da2-86a208ab837c,8,1639593374594.0,1639593400149.0,1639593416677.0,1639593417973.0,43.379,25.555,17.824,16,16,True,21,"[2, 4, 3, 2, 2, 3]","1639593382313:2,1639593383442:4,1639593385129:3,1639593387174:2,1639593388350:2,1639593389626:3",3,14,15,6,0.375
100,run1,0100-0250f292-3528-41a0-9ef3-f871d00ec234,8,1639593388751.0,1639593404070.0,1639593411021.0,1639593416849.0,28.098,15.319,12.779,11,11,True,21,"[3, 3, 3, 2]","1639593396131:3,1639593396389:3,1639593396621:3,1639593402728:2",3,10,12,4,0.36363636363636365
102,run1,5157-3d1a9fad-c10e-4a00-8c24-a22868d60b2d,7,1639593398382.0,1639593405582.0,1639593408273.0,1639593409930.0,11.548,7.2,4.348,2,2,True,15,"[1, 1]","1639593280265:1,1639593280549:1",2,4,3,2,1.0
104,run1,6180-111bc9d5-f170-42d4-b25b-5a553e7d53f4,2,1639593389692.0,1639593406296.0,1639593428261.0,1639593429770.0,40.078,16.604,23.474,6,6,True,0,"[3, 3]","1639593398763:3,1639593398996:3",3,5,7,2,0.3333333333333333
106,run1,9838-da3885e8-773a-4253-8229-bd28dd512256,13,1639593401773.0,1639593409489.0,1639593418760.0,1639593419553.0,17.78,7.716,10.064,9,9,True,36,"[4, 4, 1]","1639593409415:4,1639593409533:4,1639593410277:1",1,11,10,3,0.3333333333333333
107,run1,0137-3e1d73a9-6a65-4327-b3c0-11f6af207c24,1,1639593378464.0,1639593409620.0,1639593448817.0,1639593450019.0,71.555,31.156,40.399,14,14,True,0,"[2, 2, 2, 2, 2, 2, 2]","1639593403332:2,1639593412159:2,1639593412633:2,1639593413069:2,1639593413523:2,1639593413937:2,1639593414389:2",2,15,13,7,0.5
108,run1,2515-ce45844d-b4fd-4433-9d4f-5244bcd8c2b1,3,1639593391210.0,1639593410456.0,1639593415697.0,1639593417276.0,26.066,19.246,6.82,9,9,True,3,[1],1639593409253:1,1,7,8,1,0.1111111111111111
112,run1,6505-1441f682-c593-4bdf-ba56-86382ce58058,13,1639593407178.0,1639593420729.0,1639593427265.0,1639593428118.0,20.94,13.551,7.389,8,8,True,24,"[1, 1, 1, 2, 1, 1, 1]","1639593415793:1,1639593416524:1,1639593417086:1,1639593418540:2,1639593419008:1,1639593419382:1,1639593419735:1",1,7,9,7,0.875
116,run1,0100-0250f292-3528-41a0-9ef3-f871d00ec234,9,1639593418852.0,1639593427541.0,1639593430702.0,1639593432293.0,13.441,8.689,4.752,4,4,True,24,[4],1639593424134:4,3,2,3,1,0.25
117,run1,9405-503c0c48-b1d9-49d8-9da2-86a208ab837c,9,1639593419978.0,1639593428701.0,1639593431509.0,1639593432273.0,12.295,8.723,3.572,4,4,True,24,"[3, 1]","1639593426043:3,1639593427311:1",3,5,3,2,0.5
119,run1,2515-ce45844d-b4fd-4433-9d4f-5244bcd8c2b1,4,1639593419282.0,1639593431269.0,1639593441549.0,1639593442831.0,23.549,11.987,11.562,11,11,True,6,[1],1639593426060:1,2,13,12,1,0.09090909090909091
121,run1,5157-3d1a9fad-c10e-4a00-8c24-a22868d60b2d,8,1639593411932.0,1639593439699.0,1639593465501.0,1639593466426.0,54.494,27.767,26.727,16,16,True,18,"[1, 2, 2, 2, 3, 2, 3, 1]","1639593298245:1,1639593299459:2,1639593299809:2,1639593300866:2,1639593301829:3,1639593309039:2,1639593312562:3,1639593313041:1",2,15,14,8,0.5
122,run1,6505-1441f682-c593-4bdf-ba56-86382ce58058,14,1639593430123.0,1639593441487.0,1639593452192.0,1639593453239.0,23.116,11.364,11.752,12,12,True,27,"[1, 1, 4, 1, 2, 1, 1, 1]","1639593433789:1,1639593434493:1,1639593436091:4,1639593437969:1,1639593439203:2,1639593439864:1,1639593440453:1,1639593440707:1",2,10,11,8,0.6666666666666666
128,run1,0100-0250f292-3528-41a0-9ef3-f871d00ec234,10,1639593434295.0,1639593448286.0,1639593462150.0,1639593463103.0,28.808,13.991,14.817,10,10,True,27,"[4, 1, 4, 1]","1639593442550:4,1639593443150:1,1639593443588:4,1639593444054:1",3,11,9,4,0.4
129,run1,9838-da3885e8-773a-4253-8229-bd28dd512256,14,1639593421555.0,1639593448492.0,1639593452317.0,1639593453181.0,31.626,26.937,4.689,16,16,True,39,"[4, 4, 4, 4]","1639593434359:4,1639593435052:4,1639593435845:4,1639593439962:4,1639593440596:1,1639593449116:del",1,14,15,4,0.25
133,run1,6180-111bc9d5-f170-42d4-b25b-5a553e7d53f4,3,1639593431771.0,1639593457754.0,1639593516706.0,1639593531752.0,99.981,25.983,73.998,15,15,True,3,"[4, 4, 2, 4, 1]","1639593448636:4,1639593449068:4,1639593449956:2,1639593454556:4,1639593455444:1",1,16,14,5,0.3333333333333333
135,run1,8585-9aa44d59-f0bc-469a-9ae3-4c6bca30b069,1,1639593435543.0,1639593458288.0,1639593463106.0,1639593464536.0,28.993,22.745,6.248,1,1,True,0,[1],"1639593438323:1,1639593452564:del,1639593453361:1",1,2,3,1,1.0
136,run1,9405-503c0c48-b1d9-49d8-9da2-86a208ab837c,10,1639593434275.0,1639593458294.0,1639593482037.0,1639593482765.0,48.49,24.019,24.471,15,15,True,27,"[1, 3, 2, 1, 2, 2, 2, 2]","1639593440083:1,1639593443262:3,1639593444611:2,1639593452647:1,1639593453780:2,1639593454447:2,1639593455163:2,1639593458311:2",1,16,14,8,0.5333333333333333
137,run1,6505-1441f682-c593-4bdf-ba56-86382ce58058,15,1639593455244.0,1639593463844.0,1639593476691.0,1639593477948.0,22.704,8.6,14.104,11,11,True,30,"[2, 1, 1, 2, 1, 2, 2]","1639593458396:2,1639593459511:1,1639593460041:1,1639593460544:2,1639593460964:1,1639593462526:2,1639593462843:2",3,12,10,7,0.6363636363636364
138,run1,0137-3e1d73a9-6a65-4327-b3c0-11f6af207c24,2,1639593452025.0,1639593465053.0,1639593473497.0,1639593474342.0,22.317,13.028,9.289,9,9,True,3,"[3, 3, 3]","1639593466162:3,1639593466743:3,1639593467235:3",2,10,11,3,0.3333333333333333
139,run1,9838-da3885e8-773a-4253-8229-bd28dd512256,15,1639593455184.0,1639593465178.0,1639593476781.0,1639593477887.0,22.703,9.994,12.709,13,13,True,42,"[4, 4, 4, 1]","1639593464788:4,1639593465113:4,1639593465462:4,1639593466134:1",1,12,11,4,0.3076923076923077
143,run1,0100-0250f292-3528-41a0-9ef3-f871d00ec234,11,1639593465105.0,1639593470150.0,1639593475055.0,1639593476502.0,11.397,5.045,6.352,3,3,True,30,[3],1639593468374:3,3,5,4,1,0.3333333333333333
145,run1,2515-ce45844d-b4fd-4433-9d4f-5244bcd8c2b1,5,1639593444835.0,1639593474730.0,1639593481986.0,1639593483113.0,38.278,29.895,8.383,7,6,False,9,[1],1639593466124:1,2,6,8,1,0.14285714285714285
148,run1,5157-3d1a9fad-c10e-4a00-8c24-a22868d60b2d,9,1639593468431.0,1639593478518.0,1639593486072.0,1639593486969.0,18.538,10.087,8.451,6,6,True,21,"[1, 2, 1, 1, 1]","1639593348364:1,1639593349446:2,1639593350512:1,1639593351032:1,1639593351669:1",1,7,5,5,0.8333333333333334
149,run1,0137-3e1d73a9-6a65-4327-b3c0-11f6af207c24,3,1639593476343.0,1639593480364.0,1639593481913.0,1639593482656.0,6.313,4.021,2.292,2,2,True,6,[2],1639593485329:2,1,4,3,1,0.5
151,run1,9838-da3885e8-773a-4253-8229-bd28dd512256,16,1639593479888.0,1639593483184.0,1639593485160.0,1639593485935.0,6.047,3.296,2.751,2,2,True,45,[2],1639593484086:2,2,1,3,1,0.5
152,run1,8585-9aa44d59-f0bc-469a-9ae3-4c6bca30b069,2,1639593466540.0,1639593483591.0,1639593554768.0,1639593555896.0,89.356,17.051,72.305,10,10,True,3,"[4, 4, 2]","1639593474871:4,1639593475736:4,1639593476870:2",1,12,11,3,0.3
153,run1,6505-1441f682-c593-4bdf-ba56-86382ce58058,16,1639593479954.0,1639593484296.0,1639593486186.0,1639593487096.0,7.142,4.342,2.8,2,2,True,33,"[1, 1]","1639593483107:1,1639593483261:1",3,3,1,2,1.0
156,run1,7367-2d612f2f-a1f4-4d6b-a5d5-7f54c0c15eac,1,1639593368523.0,1639593485981.0,1639593513370.0,1639593514700.0,146.177,117.458,28.719,11,11,True,0,"[4, 4, 3]","1639593473523:4,1639593475779:4,1639593478857:3",1,9,10,3,0.2727272727272727
157,run1,0100-0250f292-3528-41a0-9ef3-f871d00ec234,12,1639593478506.0,1639593487195.0,1639593491838.0,1639593492727.0,14.221,8.689,5.532,7,7,True,33,"[3, 4]","1639593484908:3,1639593486178:4",3,6,8,2,0.2857142857142857
158,run1,9405-503c0c48-b1d9-49d8-9da2-86a208ab837c,11,1639593484769.0,1639593489822.0,1639593491305.0,1639593491921.0,7.152,5.053,2.099,1,1,True,30,[1],1639593489918:1,2,3,2,1,1.0
159,run1,0137-3e1d73a9-6a65-4327-b3c0-11f6af207c24,4,1639593484657.0,1639593490116.0,1639593494177.0,1639593494900.0,10.243,5.459,4.784,6,6,True,9,"[3, 3]","1639593494611:3,1639593494913:3",3,8,7,2,0.3333333333333333
163,run1,0089-84ef8c77-b491-4608-9f6f-f3b5bab1c2d8,2,1639593415727.0,1639593494852.0,1639593518418.0,1639593520554.0,104.827,79.125,25.702,14,12,False,3,[3],"1639593476734:3,1639593479006:3,1639593479599:4,1639593480726:del,1639593481398:del,1639593481799:del,1639593486366:3",3,13,12,1,0.07142857142857142
164,run1,9838-da3885e8-773a-4253-8229-bd28dd512256,17,1639593487936.0,1639593495640.0,1639593501365.0,1639593502100.0,14.164,7.704,6.46,10,10,True,48,"[4, 4, 2]","1639593495914:4,1639593496217:4,1639593496688:2",1,9,11,3,0.3
166,run1,6505-1441f682-c593-4bdf-ba56-86382ce58058,17,1639593489097.0,1639593502228.0,1639593528445.0,1639593529282.0,40.185,13.131,27.054,16,16,True,36,"[1, 1, 2, 3, 1, 2, 1, 2, 1, 2]","1639593493381:1,1639593493935:1,1639593494608:2,1639593496335:3,1639593497250:1,1639593498739:2,1639593499505:1,1639593500649:2,1639593501124:1,1639593501493:2",2,15,14,10,0.625
168,run1,9838-da3885e8-773a-4253-8229-bd28dd512256,18,1639593504103.0,1639593506931.0,1639593508653.0,1639593509415.0,5.312,2.828,2.484,1,1,True,51,[1],1639593508050:1,3,3,2,1,1.0
169,run1,9405-503c0c48-b1d9-49d8-9da2-86a208ab837c,12,1639593493927.0,1639593509142.0,1639593519525.0,1639593520745.0,26.818,15.215,11.603,8,8,True,33,"[1, 2, 1, 3, 1]","1639593500376:1,1639593504421:2,1639593506134:1,1639593507257:3,1639593508490:1",2,9,7,5,0.625
171,run1,2515-ce45844d-b4fd-4433-9d4f-5244bcd8c2b1,6,1639593485118.0,1639593511147.0,1639593522785.0,1639593524991.0,39.873,26.029,13.844,12,11,False,9,[3],1639593500986:3,2,13,11,1,0.08333333333333333
172,run1,0100-0250f292-3528-41a0-9ef3-f871d00ec234,13,1639593494729.0,1639593511854.0,1639593527946.0,1639593528962.0,34.233,17.125,17.108,16,16,True,36,"[4, 4, 4, 4]","1639593505900:4,1639593506176:4,1639593506494:4,1639593506818:4",3,14,15,4,0.25
173,run1,0137-3e1d73a9-6a65-4327-b3c0-11f6af207c24,5,1639593496901.0,1639593512435.0,1639593517545.0,1639593518163.0,21.262,15.534,5.728,12,12,True,12,"[4, 4, 4]","1639593515451:4,1639593515955:4,1639593516337:4",2,11,10,3,0.25
175,run1,5157-3d1a9fad-c10e-4a00-8c24-a22868d60b2d,10,1639593488971.0,1639593515618.0,1639593540186.0,1639593541123.0,52.152,26.647,25.505,14,14,True,24,"[2, 1, 1, 1, 2, 1, 1, 3, 1, 1]","1639593377920:2,1639593378897:1,1639593380848:1,1639593381500:1,1639593382241:2,1639593384382:1,1639593386551:1,1639593387292:3,1639593388192:1,1639593388425:1",2,15,13,10,0.7142857142857143
178,run1,9838-da3885e8-773a-4253-8229-bd28dd512256,19,1639593511419.0,1639593517083.0,1639593519531.0,1639593521061.0,9.642,5.664,3.978,6,6,True,54,"[4, 2]","1639593517176:4,1639593518109:2",3,8,7,2,0.3333333333333333
182,run1,9838-da3885e8-773a-4253-8229-bd28dd512256,20,1639593523065.0,1639593527421.0,1639593528712.0,1639593529487.0,6.422,4.356,2.066,4,4,True,57,[4],1639593528457:4,1,6,5,1,0.25
184,run1,9405-503c0c48-b1d9-49d8-9da2-86a208ab837c,13,1639593522747.0,1639593528851.0,1639593531793.0,1639593532683.0,9.936,6.104,3.832,3,3,True,36,[3],1639593528038:3,2,2,4,1,0.3333333333333333
186,run1,0137-3e1d73a9-6a65-4327-b3c0-11f6af207c24,6,1639593520164.0,1639593531990.0,1639593543761.0,1639593544426.0,24.262,11.826,12.436,16,16,True,15,"[4, 4, 4, 4]","1639593535748:4,1639593536077:4,1639593536411:4,1639593536737:4",2,15,14,4,0.25
187,run1,7367-2d612f2f-a1f4-4d6b-a5d5-7f54c0c15eac,2,1639593516701.0,1639593534313.0,1639593560727.0,1639593561707.0,45.006,17.612,27.394,5,5,True,3,"[4, 1]","1639593532338:4,1639593533093:1",3,6,4,2,0.4
188,run1,2515-ce45844d-b4fd-4433-9d4f-5244bcd8c2b1,7,1639593526996.0,1639593535201.0,1639593539062.0,1639593540477.0,13.481,8.205,5.276,1,3,False,9,[1],1639593533380:1,1,2,3,1,1.0
190,run1,0100-0250f292-3528-41a0-9ef3-f871d00ec234,14,1639593530966.0,1639593538591.0,1639593547235.0,1639593548082.0,17.116,7.625,9.491,8,8,True,39,"[4, 4]","1639593537316:4,1639593537442:4",3,9,7,2,0.25
192,run1,6505-1441f682-c593-4bdf-ba56-86382ce58058,18,1639593531289.0,1639593540682.0,1639593557463.0,1639593558563.0,27.274,9.393,17.881,10,10,True,39,"[2, 1, 1, 1, 1, 1, 1, 1, 1]","1639593534447:2,1639593535011:1,1639593535950:1,1639593536440:1,1639593537781:1,1639593538366:1,1639593539322:1,1639593539644:1,1639593539906:1",2,9,11,9,0.9
194,run1,9838-da3885e8-773a-4253-8229-bd28dd512256,21,1639593531490.0,1639593542525.0,1639593547399.0,1639593548453.0,16.963,11.035,5.928,15,15,True,60,"[4, 4, 4, 3]","1639593541589:4,1639593541885:4,1639593542237:4,1639593543612:3",2,14,16,4,0.26666666666666666
197,run1,6180-111bc9d5-f170-42d4-b25b-5a553e7d53f4,4,1639593533754.0,1639593546161.0,1639593552447.0,1639593561970.0,28.216,12.407,15.809,5,5,True,6,"[4, 1]","1639593542772:4,1639593543540:1",2,6,4,2,0.4
198,run1,9405-503c0c48-b1d9-49d8-9da2-86a208ab837c,14,1639593534685.0,1639593549650.0,1639593563717.0,1639593564317.0,29.632,14.965,14.667,13,13,True,39,"[1, 1, 2, 2, 2, 2, 3]","1639593540901:1,1639593541418:1,1639593543724:2,1639593544492:2,1639593545390:2,1639593546145:2,1639593547345:3",1,14,15,7,0.5384615384615384
200,run1,0137-3e1d73a9-6a65-4327-b3c0-11f6af207c24,7,1639593546427.0,1639593552206.0,1639593559299.0,1639593562358.0,15.931,5.779,10.152,5,5,True,18,"[4, 2]","1639593556121:4,1639593556741:2",3,4,3,2,0.4
204,run1,2515-ce45844d-b4fd-4433-9d4f-5244bcd8c2b1,8,1639593542481.0,1639593556187.0,1639593560456.0,1639593561556.0,19.075,13.706,5.369,13,13,True,9,[1],1639593552840:1,1,11,12,1,0.07692307692307693
205,run1,8777-5775e5ea-92db-40a7-8381-9c5e6b710e24,1,1639593507897.0,1639593558107.0,1639593568904.0,1639593570727.0,62.83,50.21,12.62,12,10,False,0,[4],1639593564726:4,3,10,11,1,0.08333333333333333
206,run1,9838-da3885e8-773a-4253-8229-bd28dd512256,22,1639593550466.0,1639593559819.0,1639593566202.0,1639593567623.0,17.157,9.353,7.804,11,11,True,63,"[4, 4, 3]","1639593558596:4,1639593559120:4,1639593560949:3",1,9,10,3,0.2727272727272727
210,run1,0100-0250f292-3528-41a0-9ef3-f871d00ec234,15,1639593550085.0,1639593566122.0,1639593574557.0,1639593581821.0,31.736,16.037,15.699,14,14,True,42,"[4, 4, 4, 2]","1639593561009:4,1639593561161:4,1639593564864:4,1639593565352:2",3,13,12,4,0.2857142857142857
212,run1,0137-3e1d73a9-6a65-4327-b3c0-11f6af207c24,8,1639593564364.0,1639593568077.0,1639593570092.0,1639593570705.0,6.341,3.713,2.628,1,1,True,21,[1],1639593572870:1,1,3,2,1,1.0
213,run1,8585-9aa44d59-f0bc-469a-9ae3-4c6bca30b069,3,1639593557901.0,1639593569164.0,1639593577435.0,1639593578223.0,20.322,11.263,9.059,6,6,True,6,"[4, 2]","1639593565873:4,1639593566300:2",3,5,7,2,0.3333333333333333
214,run1,2515-ce45844d-b4fd-4433-9d4f-5244bcd8c2b1,9,1639593563561.0,1639593570225.0,1639593573981.0,1639593575023.0,11.462,6.664,4.798,2,2,True,12,[2],1639593567264:2,1,3,1,1,0.5
215,run1,8185-ce4ab2f7-c672-4523-9431-48840a8f2dd3,1,1639593531504.0,1639593570323.0,1639593612826.0,1639593613900.0,82.396,38.819,43.577,11,13,False,0,"[3, 2, 1]","1639593550278:3,1639593565093:2,1639593565609:1",3,13,12,3,0.2727272727272727
216,run1,6505-1441f682-c593-4bdf-ba56-86382ce58058,19,1639593560565.0,1639593571292.0,1639593597656.0,1639593598711.0,38.146,10.727,27.419,13,15,False,42,"[1, 1, 2, 1, 1, 1, 4, 1, 1]","1639593563798:1,1639593564275:1,1639593566033:2,1639593566826:1,1639593567298:1,1639593567997:1,1639593569599:4,1639593570269:1,1639593570550:1",3,15,14,9,0.6923076923076923
217,run1,9838-da3885e8-773a-4253-8229-bd28dd512256,23,1639593569626.0,1639593573191.0,1639593575316.0,1639593576170.0,6.544,3.565,2.979,3,3,True,66,[3],1639593574103:3,2,4,2,1,0.3333333333333333
222,run1,6180-111bc9d5-f170-42d4-b25b-5a553e7d53f4,5,1639593563979.0,1639593582270.0,1639593590595.0,1639593592968.0,28.989,18.291,10.698,7,7,True,9,"[4, 3]","1639593576956:4,1639593577420:3",3,6,8,2,0.2857142857142857
223,run1,9838-da3885e8-773a-4253-8229-bd28dd512256,24,1639593578173.0,1639593583083.0,1639593588284.0,1639593589104.0,10.931,4.91,6.021,5,5,True,69,"[4, 1]","1639593583274:4,1639593583930:1",2,7,6,2,0.4
224,run1,5157-3d1a9fad-c10e-4a00-8c24-a22868d60b2d,11,1639593543127.0,1639593583420.0,1639593600817.0,1639593606528.0,63.401,40.293,23.108,13,13,True,27,"[1, 2, 4, 3, 3]","1639593425463:1,1639593427548:2,1639593449373:4,1639593450415:3,1639593450595:3",3,12,11,5,0.38461538461538464
225,run1,7367-2d612f2f-a1f4-4d6b-a5d5-7f54c0c15eac,3,1639593563708.0,1639593583740.0,1639593607951.0,1639593609052.0,45.344,20.032,25.312,9,9,True,6,"[4, 4, 1]","1639593581018:4,1639593581150:4,1639593582466:1",1,10,8,3,0.3333333333333333
227,run1,8777-5775e5ea-92db-40a7-8381-9c5e6b710e24,2,1639593572736.0,1639593587895.0,1639593590326.0,1639593591551.0,18.815,15.159,3.656,3,3,True,0,[3],1639593597150:3,1,4,2,1,0.3333333333333333
228,run1,2515-ce45844d-b4fd-4433-9d4f-5244bcd8c2b1,10,1639593577027.0,1639593587902.0,1639593598353.0,1639593599379.0,22.352,10.875,11.477,10,11,False,15,[2],1639593586650:2,3,9,11,1,0.1
231,run1,0089-84ef8c77-b491-4608-9f6f-f3b5bab1c2d8,3,1639593522557.0,1639593589096.0,1639593653770.0,1639593659224.0,136.667,66.539,70.128,11,11,True,3,"[3, 4]","1639593569062:3,1639593587591:4",2,10,9,2,0.18181818181818182
234,run1,0100-0250f292-3528-41a0-9ef3-f871d00ec234,16,1639593583823.0,1639593592760.0,1639593601437.0,1639593605414.0,21.591,8.937,12.654,9,9,True,45,"[4, 4, 1]","1639593591311:4,1639593591467:4,1639593592031:1",3,11,10,3,0.3333333333333333
236,run1,0137-3e1d73a9-6a65-4327-b3c0-11f6af207c24,9,1639593572709.0,1639593595580.0,1639593598528.0,1639593599341.0,26.632,22.871,3.761,10,10,True,24,"[4, 4, 2]","1639593588761:4,1639593589489:4,1639593589863:4,1639593592423:del,1639593592853:del,1639593593013:del,1639593598339:4,1639593598865:4,1639593599587:2",1,11,9,3,0.3
237,run1,8585-9aa44d59-f0bc-469a-9ae3-4c6bca30b069,4,1639593580226.0,1639593596903.0,1639593608589.0,1639593609376.0,29.15,16.677,12.473,7,7,True,9,"[4, 3]","1639593592314:4,1639593593227:3,1639593594836:del,1639593596106:3",1,8,9,2,0.2857142857142857
238,run1,9838-da3885e8-773a-4253-8229-bd28dd512256,25,1639593591106.0,1639593597892.0,1639593601106.0,1639593601853.0,10.747,6.786,3.961,7,7,True,72,"[4, 3]","1639593598190:4,1639593598994:3",1,9,8,2,0.2857142857142857
242,run1,9405-503c0c48-b1d9-49d8-9da2-86a208ab837c,15,1639593566318.0,1639593603522.0,1639593617033.0,1639593619297.0,52.979,37.204,15.775,11,11,True,42,"[1, 1, 1, 2, 2, 2, 1, 1]","1639593580829:1,1639593586831:1,1639593587907:1,1639593589120:2,1639593589836:2,1639593590963:2,1639593593172:1,1639593593755:1",1,10,12,8,0.7272727272727273
244,run1,6505-1441f682-c593-4bdf-ba56-86382ce58058,20,1639593600713.0,1639593608986.0,1639593619791.0,1639593620896.0,20.183,8.273,11.91,6,6,True,42,"[1, 3, 1, 1]","1639593603792:1,1639593605095:3,1639593606264:1,1639593607767:1",2,5,7,4,0.6666666666666666
246,run1,5703-feaef934-e2d6-41af-b26b-aa639096547d,1,1639593595731.0,1639593610099.0,1639593623166.0,1639593624701.0,28.97,14.368,14.602,14,13,False,0,[3],1639593629063:3,3,15,13,1,0.07142857142857142
247,run1,0100-0250f292-3528-41a0-9ef3-f871d00ec234,17,1639593607416.0,1639593612015.0,1639593614189.0,1639593615070.0,7.654,4.599,3.055,1,1,True,48,[1],1639593610513:1,3,3,2,1,1.0
249,run1,9838-da3885e8-773a-4253-8229-bd28dd512256,26,1639593603855.0,1639593612838.0,1639593615463.0,1639593616365.0,12.51,8.983,3.527,12,12,True,75,"[4, 4, 4]","1639593612526:4,1639593612885:4,1639593613858:4",1,10,11,3,0.25
250,run1,2515-ce45844d-b4fd-4433-9d4f-5244bcd8c2b1,11,1639593601387.0,1639593613442.0,1639593617912.0,1639593619154.0,17.767,12.055,5.712,5,6,False,15,[1],1639593609786:1,2,6,4,1,0.2
251,run1,6180-111bc9d5-f170-42d4-b25b-5a553e7d53f4,6,1639593594972.0,1639593615633.0,1639593638391.0,1639593678175.0,83.203,20.661,62.542,16,16,True,12,"[4, 4, 4, 4]","1639593610492:4,1639593611708:4,1639593612956:4,1639593613324:4",1,14,15,4,0.25
253,run1,8777-5775e5ea-92db-40a7-8381-9c5e6b710e24,3,1639593593554.0,1639593616272.0,1639593628567.0,1639593629545.0,35.991,22.718,13.273,11,10,False,3,[2],1639593627393:2,2,10,12,1,0.09090909090909091
257,run1,0137-3e1d73a9-6a65-4327-b3c0-11f6af207c24,10,1639593601344.0,1639593621540.0,1639593641195.0,1639593641872.0,40.528,20.196,20.332,13,13,True,27,"[4, 4, 4, 1]","1639593623413:4,1639593623961:4,1639593625419:4,1639593626117:1",3,14,15,4,0.3076923076923077
258,run1,0100-0250f292-3528-41a0-9ef3-f871d00ec234,18,1639593617071.0,1639593622167.0,1639593630581.0,1639593631366.0,14.295,5.096,9.199,6,6,True,51,"[4, 2]","1639593620777:4,1639593621301:2",3,7,8,2,0.3333333333333333
259,run1,9838-da3885e8-773a-4253-8229-bd28dd512256,27,1639593618367.0,1639593623803.0,1639593626898.0,1639593628893.0,10.526,5.436,5.09,8,8,True,78,"[4, 4]","1639593624737:4,1639593624879:4",2,9,10,2,0.25
263,run1,5157-3d1a9fad-c10e-4a00-8c24-a22868d60b2d,12,1639593608606.0,1639593628922.0,1639593634424.0,1639593639133.0,30.527,20.316,10.211,9,9,True,30,"[1, 2, 2, 1, 1, 1, 1]","1639593495485:1,1639593496230:2,1639593496696:2,1639593497412:1,1639593498772:1,1639593499158:1,1639593499645:1",1,8,10,7,0.7777777777777778
264,run1,2515-ce45844d-b4fd-4433-9d4f-5244bcd8c2b1,12,1639593621159.0,1639593630213.0,1639593636777.0,1639593637926.0,16.767,9.054,7.713,4,4,True,15,[4],1639593627621:4,1,5,3,1,0.25
266,run1,8185-ce4ab2f7-c672-4523-9431-48840a8f2dd3,2,1639593615907.0,1639593631294.0,1639593639436.0,1639593640659.0,24.752,15.387,9.365,5,3,False,0,"[3, 2]","1639593622408:3,1639593623415:2",3,3,4,2,0.4
267,run1,6505-1441f682-c593-4bdf-ba56-86382ce58058,21,1639593622899.0,1639593634887.0,1639593644176.0,1639593645347.0,22.448,11.988,10.46,7,7,True,45,"[1, 1, 1, 1, 1, 1, 1]","1639593631861:1,1639593632337:1,1639593632840:1,1639593633192:1,1639593633501:1,1639593633741:1,1639593633970:1",2,5,6,7,1.0
268,run1,5703-feaef934-e2d6-41af-b26b-aa639096547d,2,1639593626703.0,1639593635334.0,1639593640252.0,1639593642770.0,16.067,8.631,7.436,16,15,False,0,[2],1639593658375:2,2,15,14,1,0.0625
271,run1,8585-9aa44d59-f0bc-469a-9ae3-4c6bca30b069,5,1639593611379.0,1639593638741.0,1639593647371.0,1639593648075.0,36.696,27.362,9.334,9,9,True,12,"[4, 4, 1]","1639593621877:4,1639593622175:4,1639593622867:1",2,8,7,3,0.3333333333333333
272,run1,9405-503c0c48-b1d9-49d8-9da2-86a208ab837c,16,1639593621302.0,1639593639131.0,1639593644521.0,1639593645221.0,23.919,17.829,6.09,14,14,True,45,"[3, 2, 2, 2, 1, 2, 2]","1639593631851:3,1639593633017:2,1639593634762:2,1639593635351:2,1639593636465:1,1639593638598:2,1639593639174:2",3,13,12,7,0.5
273,run1,0100-0250f292-3528-41a0-9ef3-f871d00ec234,19,1639593633371.0,1639593640410.0,1639593643437.0,1639593646686.0,13.315,7.039,6.276,5,5,True,54,"[3, 2]","1639593637731:3,1639593638617:2",1,6,7,2,0.4
274,run1,8777-5775e5ea-92db-40a7-8381-9c5e6b710e24,4,1639593631553.0,1639593640854.0,1639593647505.0,1639593648353.0,16.8,9.301,7.499,7,6,False,3,[1],1639593651403:1,1,6,8,1,0.14285714285714285
276,run1,9838-da3885e8-773a-4253-8229-bd28dd512256,28,1639593630898.0,1639593644851.0,1639593649788.0,1639593650624.0,19.726,13.953,5.773,14,14,True,81,"[4, 4, 4, 2]","1639593642324:4,1639593642654:4,1639593642932:4,1639593645979:2",3,15,13,4,0.2857142857142857
278,run1,5157-3d1a9fad-c10e-4a00-8c24-a22868d60b2d,13,1639593641140.0,1639593647563.0,1639593651233.0,1639593652080.0,10.94,6.423,4.517,1,1,True,33,[1],1639593522130:1,3,2,3,1,1.0
280,run1,2515-ce45844d-b4fd-4433-9d4f-5244bcd8c2b1,13,1639593639930.0,1639593650254.0,1639593655664.0,1639593657904.0,17.974,10.324,7.65,6,5,False,18,[2],1639593646428:2,3,5,4,1,0.16666666666666666
282,run1,0137-3e1d73a9-6a65-4327-b3c0-11f6af207c24,11,1639593643879.0,1639593650483.0,1639593653359.0,1639593653983.0,10.104,6.604,3.5,3,3,True,30,[3],1639593655601:3,1,4,5,1,0.3333333333333333
284,run1,5703-feaef934-e2d6-41af-b26b-aa639096547d,3,1639593644771.0,1639593652347.0,1639593658233.0,1639593659435.0,14.664,7.576,7.088,1,1,True,0,[1],1639593673873:1,1,3,2,1,1.0
285,run1,7367-2d612f2f-a1f4-4d6b-a5d5-7f54c0c15eac,4,1639593611054.0,1639593653550.0,1639593673385.0,1639593678675.0,67.621,42.496,25.125,12,12,True,9,"[4, 4, 4]","1639593646646:4,1639593646802:4,1639593647170:4",2,13,14,3,0.25
288,run1,6505-1441f682-c593-4bdf-ba56-86382ce58058,22,1639593647366.0,1639593657152.0,1639593695239.0,1639593703247.0,55.881,9.786,46.095,15,14,False,48,"[1, 2, 2, 3, 1, 1, 2, 1, 1]","1639593651029:1,1639593651545:2,1639593651973:2,1639593653202:3,1639593654190:1,1639593654716:1,1639593655449:2,1639593655961:1,1639593656243:1",3,14,16,9,0.6
290,run1,9405-503c0c48-b1d9-49d8-9da2-86a208ab837c,17,1639593647223.0,1639593661396.0,1639593664233.0,1639593665130.0,17.907,14.173,3.734,7,7,True,48,"[2, 2, 3]","1639593656760:2,1639593657308:2,1639593658640:3",3,9,8,3,0.42857142857142855
291,run1,0100-0250f292-3528-41a0-9ef3-f871d00ec234,20,1639593648688.0,1639593661646.0,1639593669054.0,1639593677599.0,28.911,12.958,15.953,15,15,True,57,"[4, 4, 4, 3]","1639593654849:4,1639593658677:4,1639593660019:4,1639593660865:3",1,13,14,4,0.26666666666666666
292,run1,0137-3e1d73a9-6a65-4327-b3c0-11f6af207c24,12,1639593655985.0,1639593662285.0,1639593665599.0,1639593666287.0,10.302,6.3,4.002,4,4,True,33,[4],1639593666081:4,2,6,5,1,0.25
293,run1,9838-da3885e8-773a-4253-8229-bd28dd512256,29,1639593652626.0,1639593664573.0,1639593669293.0,1639593670239.0,17.613,11.947,5.666,9,9,True,84,"[4, 4, 1]","1639593665038:4,1639593665188:4,1639593665631:1",2,8,7,3,0.3333333333333333
296,run1,5703-feaef934-e2d6-41af-b26b-aa639096547d,4,1639593661437.0,1639593665218.0,1639593674565.0,1639593676859.0,15.422,3.781,11.641,12,11,False,3,[3],1639593690219:3,3,10,11,1,0.08333333333333333
299,run1,8777-5775e5ea-92db-40a7-8381-9c5e6b710e24,5,1639593650359.0,1639593670618.0,1639593677394.0,1639593680505.0,30.146,20.259,9.887,13,12,False,3,[4],1639593681782:4,3,11,12,1,0.07692307692307693
300,run1,8185-ce4ab2f7-c672-4523-9431-48840a8f2dd3,3,1639593642667.0,1639593671737.0,1639593697699.0,1639593699499.0,56.832,29.07,27.762,16,16,True,0,[4],1639593661658:4,1,15,14,1,0.0625
301,run1,5157-3d1a9fad-c10e-4a00-8c24-a22868d60b2d,14,1639593654085.0,1639593673842.0,1639593682460.0,1639593683537.0,29.452,19.757,9.695,8,8,True,36,"[1, 1, 1, 1, 3, 1]","1639593540148:1,1639593540710:1,1639593541584:1,1639593545336:1,1639593546385:3,1639593547204:1",3,9,7,6,0.75
304,run1,2515-ce45844d-b4fd-4433-9d4f-5244bcd8c2b1,14,1639593659910.0,1639593675681.0,1639593679730.0,1639593681823.0,21.913,15.771,6.142,16,15,False,18,[2],1639593671913:2,1,15,14,1,0.0625
305,run1,0137-3e1d73a9-6a65-4327-b3c0-11f6af207c24,13,1639593668293.0,1639593676220.0,1639593684563.0,1639593685399.0,17.106,7.927,9.179,7,7,True,36,"[4, 3]","1639593679549:4,1639593680043:3",2,8,6,2,0.2857142857142857
306,run1,9405-503c0c48-b1d9-49d8-9da2-86a208ab837c,18,1639593667134.0,1639593677649.0,1639593691041.0,1639593692165.0,25.031,10.515,14.516,12,12,True,51,"[3, 2, 2, 2, 3]","1639593673632:3,1639593675082:2,1639593675551:2,1639593676248:2,1639593677300:3",1,11,10,5,0.4166666666666667
310,run1,8585-9aa44d59-f0bc-469a-9ae3-4c6bca30b069,6,1639593650078.0,1639593682554.0,1639593735385.0,1639593736187.0,86.109,32.476,53.633,12,12,True,15,"[4, 4, 4]","1639593661281:4,1639593661867:4,1639593663378:4",1,11,13,3,0.25
311,run1,5703-feaef934-e2d6-41af-b26b-aa639096547d,5,1639593678863.0,1639593682896.0,1639593685841.0,1639593689084.0,10.221,4.033,6.188,3,2,False,3,[1],1639593707699:1,1,4,2,1,0.3333333333333333
314,run1,9838-da3885e8-773a-4253-8229-bd28dd512256,30,1639593672242.0,1639593684428.0,1639593687960.0,1639593690436.0,18.194,12.186,6.008,16,16,True,87,"[4, 4, 4, 4]","1639593683172:4,1639593683338:4,1639593683609:4,1639593685535:4",2,14,15,4,0.25
315,run1,0100-0250f292-3528-41a0-9ef3-f871d00ec234,21,1639593679601.0,1639593685045.0,1639593687814.0,1639593688743.0,9.142,5.444,3.698,2,2,True,60,[2],1639593681849:2,1,1,3,1,0.5
317,run1,2515-ce45844d-b4fd-4433-9d4f-5244bcd8c2b1,15,1639593683828.0,1639593689407.0,1639593692673.0,1639593693616.0,9.788,5.579,4.209,3,3,True,18,[3],1639593687379:3,1,2,4,1,0.3333333333333333
318,run1,8777-5775e5ea-92db-40a7-8381-9c5e6b710e24,6,1639593682512.0,1639593690956.0,1639593692529.0,1639593693618.0,11.106,8.444,2.662,2,2,True,3,[2],1639593699821:2,3,3,4,1,0.5
319,run1,0137-3e1d73a9-6a65-4327-b3c0-11f6af207c24,14,1639593687400.0,1639593693819.0,1639593704951.0,1639593706061.0,18.661,6.419,12.242,8,8,True,39,"[4, 4]","1639593698597:4,1639593698787:4",1,7,6,2,0.25
321,run1,5703-feaef934-e2d6-41af-b26b-aa639096547d,6,1639593691086.0,1639593697365.0,1639593700813.0,1639593702363.0,11.277,6.279,4.998,13,15,False,3,[3],1639593720040:3,3,15,14,1,0.07692307692307693
322,run1,0089-84ef8c77-b491-4608-9f6f-f3b5bab1c2d8,4,1639593661226.0,1639593697682.0,1639593704808.0,1639593706195.0,44.969,36.456,8.513,12,13,False,6,[2],1639593671014:2,2,14,13,1,0.08333333333333333
325,run1,0100-0250f292-3528-41a0-9ef3-f871d00ec234,22,1639593690744.0,1639593702195.0,1639593716847.0,1639593717591.0,26.847,11.451,15.396,12,12,True,63,"[4, 4, 4]","1639593697424:4,1639593699304:4,1639593700968:4",2,13,14,3,0.25
326,run1,9405-503c0c48-b1d9-49d8-9da2-86a208ab837c,19,1639593694167.0,1639593704221.0,1639593714241.0,1639593714873.0,20.706,10.054,10.652,9,9,True,54,"[1, 2, 2, 1, 3]","1639593700049:1,1639593701257:2,1639593701753:2,1639593703046:1,1639593704352:3",2,10,11,5,0.5555555555555556
328,run1,2515-ce45844d-b4fd-4433-9d4f-5244bcd8c2b1,16,1639593695622.0,1639593706279.0,1639593711435.0,1639593712658.0,17.036,10.657,6.379,8,9,False,21,[2],1639593703018:2,3,7,9,1,0.125
329,run1,9838-da3885e8-773a-4253-8229-bd28dd512256,31,1639593692437.0,1639593707959.0,1639593713011.0,1639593718666.0,26.229,15.522,10.707,13,13,True,90,"[4, 4, 4, 1]","1639593701986:4,1639593702139:4,1639593702279:4,1639593704107:1",2,14,15,4,0.3076923076923077
330,run1,6180-111bc9d5-f170-42d4-b25b-5a553e7d53f4,7,1639593680177.0,1639593708299.0,1639593751561.0,1639593762762.0,82.585,28.122,54.463,14,14,True,15,"[4, 4, 4, 2]","1639593703565:4,1639593704764:4,1639593705492:4,1639593706524:2",3,15,16,4,0.2857142857142857
331,run1,8777-5775e5ea-92db-40a7-8381-9c5e6b710e24,7,1639593695621.0,1639593708397.0,1639593711803.0,1639593712781.0,17.16,12.776,4.384,9,8,False,6,[2],1639593719325:2,3,8,10,1,0.1111111111111111
333,run1,6505-1441f682-c593-4bdf-ba56-86382ce58058,23,1639593705264.0,1639593708743.0,1639593711444.0,1639593712794.0,7.53,3.479,4.051,1,1,True,48,[1],1639593707989:1,2,2,3,1,1.0
334,run1,8185-ce4ab2f7-c672-4523-9431-48840a8f2dd3,4,1639593701503.0,1639593711855.0,1639593730538.0,1639593731858.0,30.355,10.352,20.003,4,5,False,3,[4],1639593708737:4,2,5,3,1,0.25
336,run1,7367-2d612f2f-a1f4-4d6b-a5d5-7f54c0c15eac,5,1639593680676.0,1639593715382.0,1639593725696.0,1639593726596.0,45.92,34.706,11.214,10,10,True,12,"[4, 4, 2]","1639593707007:4,1639593707154:4,1639593708027:2",3,11,9,3,0.3
337,run1,5157-3d1a9fad-c10e-4a00-8c24-a22868d60b2d,15,1639593685542.0,1639593718213.0,1639593761891.0,1639593762910.0,77.368,32.671,44.697,15,15,True,39,"[3, 1, 2, 1, 1, 1, 1, 1, 1, 1, 1, 1]","1639593569720:3,1639593571168:1,1639593572425:2,1639593573990:1,1639593574285:1,1639593577647:1,1639593578099:1,1639593578536:1,1639593578986:1,1639593579960:1,1639593580417:1,1639593581020:1",3,14,16,12,0.8
338,run1,9838-da3885e8-773a-4253-8229-bd28dd512256,32,1639593720668.0,1639593724070.0,1639593729035.0,1639593729963.0,9.295,3.402,5.893,2,2,True,93,[2],1639593724815:2,2,1,3,1,0.5
339,run1,8777-5775e5ea-92db-40a7-8381-9c5e6b710e24,8,1639593714783.0,1639593724187.0,1639593729115.0,1639593729981.0,15.198,9.404,5.794,6,6,True,6,[2],1639593734437:2,2,7,8,1,0.16666666666666666
340,run1,0137-3e1d73a9-6a65-4327-b3c0-11f6af207c24,15,1639593708068.0,1639593724458.0,1639593737626.0,1639593738299.0,30.231,16.39,13.841,11,11,True,42,"[4, 4, 3]","1639593727767:4,1639593728363:4,1639593729411:3",3,10,12,3,0.2727272727272727
341,run1,2515-ce45844d-b4fd-4433-9d4f-5244bcd8c2b1,17,1639593714663.0,1639593724747.0,1639593729733.0,1639593730848.0,16.185,10.084,6.101,14,14,True,21,[2],1639593723745:2,3,15,13,1,0.07142857142857142
343,run1,6505-1441f682-c593-4bdf-ba56-86382ce58058,24,1639593714800.0,1639593725037.0,1639593745816.0,1639593746829.0,32.029,10.237,21.792,9,8,False,51,"[3, 2, 1, 1, 1]","1639593719237:3,1639593722874:2,1639593723359:1,1639593724030:1,1639593724255:1",1,8,10,5,0.5555555555555556
345,run1,9405-503c0c48-b1d9-49d8-9da2-86a208ab837c,20,1639593716875.0,1639593726179.0,1639593731401.0,1639593733629.0,16.754,9.304,7.45,6,6,True,57,"[2, 2, 1, 1]","1639593724370:2,1639593724776:2,1639593725970:1,1639593726293:1",1,7,5,4,0.6666666666666666
346,run1,5703-feaef934-e2d6-41af-b26b-aa639096547d,7,1639593704365.0,1639593726265.0,1639593733900.0,1639593735616.0,31.251,21.9,9.351,11,11,True,3,[2],"1639593744793:2,1639593747940:3,1639593749242:del",2,12,10,1,0.09090909090909091
348,run1,0100-0250f292-3528-41a0-9ef3-f871d00ec234,23,1639593719594.0,1639593728420.0,1639593735206.0,1639593735823.0,16.229,8.826,7.403,13,13,True,66,"[4, 4, 4, 1]","1639593726670:4,1639593726822:4,1639593726972:4,1639593727582:1",3,15,14,4,0.3076923076923077
351,run1,0089-84ef8c77-b491-4608-9f6f-f3b5bab1c2d8,5,1639593708198.0,1639593731841.0,1639593748552.0,1639593750759.0,42.561,23.643,18.918,16,15,False,6,"[3, 4]","1639593727686:3,1639593728886:4",3,15,14,2,0.125
354,run1,9405-503c0c48-b1d9-49d8-9da2-86a208ab837c,21,1639593735634.0,1639593740863.0,1639593742661.0,1639593743381.0,7.747,5.229,2.518,2,2,True,60,[2],1639593740888:2,3,3,4,1,0.5
355,run1,8777-5775e5ea-92db-40a7-8381-9c5e6b710e24,9,1639593731985.0,1639593740886.0,1639593748529.0,1639593749383.0,17.398,8.901,8.497,16,16,True,9,[4],1639593751537:4,3,14,15,1,0.0625
356,run1,8185-ce4ab2f7-c672-4523-9431-48840a8f2dd3,5,1639593733859.0,1639593741404.0,1639593744317.0,1639593745339.0,11.48,7.545,3.935,2,3,False,3,[2],1639593738809:2,2,1,3,1,0.5
357,run1,5703-feaef934-e2d6-41af-b26b-aa639096547d,8,1639593737619.0,1639593741988.0,1639593747077.0,1639593748800.0,11.181,4.369,6.812,9,10,False,6,[1],1639593767216:1,1,10,11,1,0.1111111111111111
358,run1,7367-2d612f2f-a1f4-4d6b-a5d5-7f54c0c15eac,6,1639593728599.0,1639593742437.0,1639593752622.0,1639593753811.0,25.212,13.838,11.374,7,6,False,15,"[4, 3]","1639593740128:4,1639593740478:3",2,6,5,2,0.2857142857142857
361,run1,2515-ce45844d-b4fd-4433-9d4f-5244bcd8c2b1,18,1639593732853.0,1639593745088.0,1639593749455.0,1639593750506.0,17.653,12.235,5.418,15,15,True,24,[2],1639593743800:2,2,14,16,1,0.06666666666666667
363,run1,0100-0250f292-3528-41a0-9ef3-f871d00ec234,24,1639593737825.0,1639593748018.0,1639593764355.0,1639593765283.0,27.458,10.193,17.265,11,11,True,69,"[4, 4, 3]","1639593743573:4,1639593744995:4,1639593746579:3",1,10,9,3,0.2727272727272727
365,run1,6505-1441f682-c593-4bdf-ba56-86382ce58058,25,1639593748831.0,1639593753582.0,1639593755938.0,1639593757616.0,8.785,4.751,4.034,3,3,True,51,"[1, 1, 1]","1639593751910:1,1639593752535:1,1639593752695:1",2,1,2,3,1.0
366,run1,8585-9aa44d59-f0bc-469a-9ae3-4c6bca30b069,7,1639593738190.0,1639593753846.0,1639593763611.0,1639593764235.0,26.045,15.656,10.389,13,13,True,18,"[4, 4, 4, 1]","1639593750198:4,1639593750628:4,1639593751166:4,1639593752371:1",3,12,11,4,0.3076923076923077
368,run1,5703-feaef934-e2d6-41af-b26b-aa639096547d,9,1639593750803.0,1639593755369.0,1639593757808.0,1639593759098.0,8.295,4.566,3.729,10,9,False,6,[1],1639593780761:1,1,11,9,1,0.1
370,run1,0137-3e1d73a9-6a65-4327-b3c0-11f6af207c24,16,1639593740301.0,1639593755575.0,1639593759527.0,1639593760125.0,19.824,15.274,4.55,15,15,True,45,"[4, 4, 4, 3]","1639593755905:4,1639593756421:4,1639593757335:4,1639593759034:3",2,14,16,4,0.26666666666666666
371,run1,9405-503c0c48-b1d9-49d8-9da2-86a208ab837c,22,1639593745385.0,1639593757210.0,1639593762289.0,1639593763145.0,17.76,11.825,5.935,10,10,True,63,"[3, 2, 3, 2]","1639593751641:3,1639593754433:2,1639593755641:3,1639593756701:2",1,9,8,4,0.4
373,run1,8777-5775e5ea-92db-40a7-8381-9c5e6b710e24,10,1639593751389.0,1639593759738.0,1639593762790.0,1639593763588.0,12.199,8.349,3.85,8,8,True,12,[2],1639593770399:2,2,10,9,1,0.125
374,run1,2515-ce45844d-b4fd-4433-9d4f-5244bcd8c2b1,19,1639593752511.0,1639593765580.0,1639593770501.0,1639593771644.0,19.133,13.069,6.064,9,10,False,27,[3],1639593761970:3,3,8,10,1,0.1111111111111111
376,run1,6505-1441f682-c593-4bdf-ba56-86382ce58058,26,1639593759624.0,1639593766420.0,1639593769736.0,1639593770978.0,11.354,6.796,4.558,4,4,True,54,"[1, 2, 1]","1639593764661:1,1639593765244:2,1639593765500:1",1,5,3,3,0.75
378,run1,8185-ce4ab2f7-c672-4523-9431-48840a8f2dd3,6,1639593747348.0,1639593769434.0,1639593787218.0,1639593788579.0,41.231,22.086,19.145,13,14,False,3,[3],1639593765645:3,1,14,12,1,0.07692307692307693
379,run1,9405-503c0c48-b1d9-49d8-9da2-86a208ab837c,23,1639593765146.0,1639593771569.0,1639593774589.0,1639593775393.0,10.247,6.423,3.824,5,5,True,66,"[3, 2]","1639593770606:3,1639593771792:2",3,6,4,2,0.4
381,run1,0100-0250f292-3528-41a0-9ef3-f871d00ec234,25,1639593767286.0,1639593772613.0,1639593774907.0,1639593775900.0,8.614,5.327,3.287,4,4,True,72,[4],1639593771489:4,2,2,3,1,0.25
382,run1,0137-3e1d73a9-6a65-4327-b3c0-11f6af207c24,17,1639593762128.0,1639593773987.0,1639593797102.0,1639593798130.0,36.002,11.859,24.143,14,14,True,48,"[4, 4, 4, 2]","1639593776787:4,1639593777653:4,1639593777981:4,1639593778979:2",2,15,16,4,0.2857142857142857
383,run1,7367-2d612f2f-a1f4-4d6b-a5d5-7f54c0c15eac,7,1639593755813.0,1639593775924.0,1639593806505.0,1639593807715.0,51.902,20.111,31.791,6,6,True,15,"[4, 2]","1639593774424:4,1639593774912:2",3,5,7,2,0.3333333333333333
385,run1,5703-feaef934-e2d6-41af-b26b-aa639096547d,10,1639593761100.0,1639593776372.0,1639593779595.0,1639593781817.0,20.717,15.272,5.445,8,7,False,6,[1],1639593800739:1,1,6,7,1,0.125
386,run1,0089-84ef8c77-b491-4608-9f6f-f3b5bab1c2d8,6,1639593752761.0,1639593778281.0,1639593785797.0,1639593787655.0,34.894,25.52,9.374,2,2,True,6,"[1, 1]","1639593774951:1,1639593775350:1",2,1,3,2,1.0
387,run1,8585-9aa44d59-f0bc-469a-9ae3-4c6bca30b069,8,1639593766238.0,1639593780264.0,1639593785402.0,1639593786054.0,19.816,14.026,5.79,5,5,True,21,"[4, 1]","1639593777963:4,1639593778351:1",2,7,6,2,0.4
389,run1,2515-ce45844d-b4fd-4433-9d4f-5244bcd8c2b1,20,1639593773649.0,1639593783045.0,1639593787751.0,1639593788885.0,15.236,9.396,5.84,11,11,True,27,[1],1639593782053:1,1,9,10,1,0.09090909090909091
392,run1,5157-3d1a9fad-c10e-4a00-8c24-a22868d60b2d,16,1639593764911.0,1639593785009.0,1639593796574.0,1639593797326.0,32.415,20.098,12.317,7,7,True,42,"[1, 1, 1, 1, 1, 1, 1]","1639593656712:1,1639593656958:1,1639593657172:1,1639593657369:1,1639593657567:1,1639593657764:1,1639593658769:1",3,8,6,7,1.0
393,run1,0100-0250f292-3528-41a0-9ef3-f871d00ec234,26,1639593777901.0,1639593787496.0,1639593794243.0,1639593798180.0,20.279,9.595,10.684,10,10,True,75,"[4, 4, 2]","1639593782173:4,1639593783143:4,1639593783828:2",3,12,11,3,0.3
394,run1,8777-5775e5ea-92db-40a7-8381-9c5e6b710e24,11,1639593765589.0,1639593789085.0,1639593791824.0,1639593792619.0,27.03,23.496,3.534,14,15,False,15,[3],"1639593788586:4,1639593792963:3,1639593795732:del,1639593796389:del,1639593798701:3",2,16,15,1,0.07142857142857142
395,run1,9405-503c0c48-b1d9-49d8-9da2-86a208ab837c,24,1639593777398.0,1639593792522.0,1639593817641.0,1639593818273.0,40.875,15.124,25.751,16,16,True,69,"[3, 2, 3, 1, 3, 4]","1639593783660:3,1639593785211:2,1639593786586:3,1639593789266:1,1639593790630:3,1639593792403:4",2,14,15,6,0.375
397,run1,6505-1441f682-c593-4bdf-ba56-86382ce58058,27,1639593772985.0,1639593793570.0,1639593831010.0,1639593831880.0,58.895,20.585,38.31,14,13,False,57,"[3, 2, 2, 1, 1, 1, 1]","1639593784092:3,1639593785355:2,1639593787013:2,1639593791450:1,1639593792122:1,1639593792571:1,1639593792879:1",3,13,15,7,0.5
398,run1,8585-9aa44d59-f0bc-469a-9ae3-4c6bca30b069,9,1639593788057.0,1639593794108.0,1639593797610.0,1639593798628.0,10.571,6.051,4.52,3,3,True,24,[3],1639593791285:3,2,4,5,1,0.3333333333333333
399,run1,5703-feaef934-e2d6-41af-b26b-aa639096547d,11,1639593783819.0,1639593794715.0,1639593802422.0,1639593805737.0,21.918,10.896,11.022,4,5,False,6,"[1, 1, 1, 1]","1639593816803:1,1639593817135:1,1639593817480:1,1639593817778:1",1,6,5,4,1.0
400,run1,6180-111bc9d5-f170-42d4-b25b-5a553e7d53f4,8,1639593764770.0,1639593794884.0,1639593825193.0,1639593826603.0,61.833,30.114,31.719,13,13,True,18,"[4, 4, 2, 3]","1639593777563:4,1639593777716:4,1639593781724:2,1639593781996:3",3,11,12,4,0.3076923076923077
401,run1,2515-ce45844d-b4fd-4433-9d4f-5244bcd8c2b1,21,1639593790889.0,1639593798896.0,1639593804624.0,1639593805751.0,14.862,8.007,6.855,7,7,True,30,[1],1639593797864:1,2,8,6,1,0.14285714285714285
403,run1,8777-5775e5ea-92db-40a7-8381-9c5e6b710e24,12,1639593794621.0,1639593801898.0,1639593803463.0,1639593804201.0,9.58,7.277,2.303,1,1,True,15,[1],1639593812624:1,2,2,3,1,1.0
405,run1,0100-0250f292-3528-41a0-9ef3-f871d00ec234,27,1639593800182.0,1639593804439.0,1639593806539.0,1639593808220.0,8.038,4.257,3.781,3,3,True,78,[3],1639593803311:3,2,2,1,1,0.3333333333333333
406,run1,8585-9aa44d59-f0bc-469a-9ae3-4c6bca30b069,10,1639593800631.0,1639593806790.0,1639593809543.0,1639593810235.0,9.604,6.159,3.445,2,2,True,27,[2],1639593805098:2,1,3,4,1,0.5
407,run1,0089-84ef8c77-b491-4608-9f6f-f3b5bab1c2d8,7,1639593789656.0,1639593808802.0,1639593820438.0,1639593821909.0,32.253,19.146,13.107,6,6,True,9,"[1, 1, 1, 1, 1, 1]","1639593797550:1,1639593797806:1,1639593798206:1,1639593798415:1,1639593798982:1,1639593799182:1",1,8,7,6,1.0
408,run1,0137-3e1d73a9-6a65-4327-b3c0-11f6af207c24,18,1639593800131.0,1639593810656.0,1639593813437.0,1639593813989.0,13.858,10.525,3.333,9,10,False,51,"[4, 4, 1]","1639593814130:4,1639593814408:4,1639593815128:1",1,10,8,3,0.3333333333333333
411,run1,5157-3d1a9fad-c10e-4a00-8c24-a22868d60b2d,17,1639593799328.0,1639593814038.0,1639593823494.0,1639593824400.0,25.072,14.71,10.362,12,12,True,45,"[3, 1, 1, 1, 2, 2, 1, 1]","1639593681785:3,1639593682442:1,1639593682961:1,1639593686130:1,1639593687084:2,1639593687415:2,1639593688333:1,1639593688600:1",1,11,10,8,0.6666666666666666
413,run1,0100-0250f292-3528-41a0-9ef3-f871d00ec234,28,1639593810223.0,1639593815115.0,1639593820828.0,1639593826172.0,15.949,4.892,11.057,7,7,True,81,"[3, 4]","1639593814052:3,1639593814314:4",2,8,9,2,0.2857142857142857
414,run1,5703-feaef934-e2d6-41af-b26b-aa639096547d,12,1639593807740.0,1639593816733.0,1639593818538.0,1639593819471.0,11.731,8.993,2.738,2,2,True,6,"[1, 1]","1639593840083:1,1639593841969:1",3,1,3,2,1.0
415,run1,7367-2d612f2f-a1f4-4d6b-a5d5-7f54c0c15eac,8,1639593809902.0,1639593818541.0,1639593833555.0,1639593834796.0,24.894,8.639,16.255,4,4,True,18,[4],1639593817060:4,3,5,3,1,0.25
416,run1,2515-ce45844d-b4fd-4433-9d4f-5244bcd8c2b1,22,1639593807756.0,1639593818989.0,1639593832333.0,1639593833432.0,25.676,11.233,14.443,12,12,True,33,[2],1639593817878:2,1,11,13,1,0.08333333333333333
417,run1,0137-3e1d73a9-6a65-4327-b3c0-11f6af207c24,19,1639593815991.0,1639593820825.0,1639593822578.0,1639593823349.0,7.358,4.834,2.524,2,2,True,51,[2],1639593824708:2,2,4,3,1,0.5
419,run1,8777-5775e5ea-92db-40a7-8381-9c5e6b710e24,13,1639593806203.0,1639593822097.0,1639593824117.0,1639593825123.0,18.92,15.894,3.026,10,10,True,18,[2],"1639593828378:3,1639593832311:del,1639593833494:2",1,11,9,1,0.1
421,run1,9405-503c0c48-b1d9-49d8-9da2-86a208ab837c,25,1639593820278.0,1639593826059.0,1639593828097.0,1639593828909.0,8.631,5.781,2.85,4,4,True,72,[4],1639593826160:4,1,3,2,1,0.25
422,run1,8185-ce4ab2f7-c672-4523-9431-48840a8f2dd3,7,1639593790588.0,1639593828093.0,1639593843739.0,1639593849379.0,58.791,37.505,21.286,10,10,True,3,[3],"1639593815683:4,1639593820544:del,1639593824346:3",1,9,11,1,0.1
423,run1,0137-3e1d73a9-6a65-4327-b3c0-11f6af207c24,20,1639593825351.0,1639593832157.0,1639593833855.0,1639593835123.0,9.772,6.806,2.966,6,6,True,54,"[3, 3]","1639593836050:3,1639593836220:3",1,7,8,2,0.3333333333333333
426,run1,5703-feaef934-e2d6-41af-b26b-aa639096547d,13,1639593821473.0,1639593836626.0,1639593857490.0,1639593858296.0,36.823,15.153,21.67,15,15,True,9,"[1, 1, 1, 1, 1, 1, 1, 1, 1, 1, 1, 1, 1, 1, 1]","1639593856841:1,1639593857189:1,1639593857527:1,1639593857852:1,1639593858189:1,1639593858538:1,1639593858865:1,1639593859237:1,1639593859624:1,1639593859999:1,1639593860407:1,1639593860791:1,1639593861245:1,1639593861689:1,1639593862123:1",2,16,14,15,1.0
427,run1,8777-5775e5ea-92db-40a7-8381-9c5e6b710e24,14,1639593827126.0,1639593837167.0,1639593840061.0,1639593841221.0,14.095,10.041,4.054,4,4,True,21,[4],1639593846774:4,3,3,5,1,0.25
428,run1,5157-3d1a9fad-c10e-4a00-8c24-a22868d60b2d,18,1639593826405.0,1639593837574.0,1639593840272.0,1639593841247.0,14.842,11.169,3.673,4,4,True,48,"[1, 1, 1, 1]","1639593707263:1,1639593708769:1,1639593709376:1,1639593710394:1",2,3,5,4,1.0
429,run1,0100-0250f292-3528-41a0-9ef3-f871d00ec234,29,1639593828176.0,1639593839600.0,1639593850060.0,1639593850797.0,22.621,11.424,11.197,16,16,True,84,"[4, 4, 4, 4]","1639593835668:4,1639593835803:4,1639593837942:4,1639593838124:4",1,15,14,4,0.25
430,run1,6505-1441f682-c593-4bdf-ba56-86382ce58058,28,1639593833881.0,1639593840163.0,1639593846748.0,1639593847640.0,13.759,6.282,7.477,5,5,True,57,"[1, 1, 1, 1, 1]","1639593838461:1,1639593838621:1,1639593838810:1,1639593838980:1,1639593839211:1",1,4,3,5,1.0
431,run1,2515-ce45844d-b4fd-4433-9d4f-5244bcd8c2b1,23,1639593835440.0,1639593840448.0,1639593844569.0,1639593845592.0,10.152,5.008,5.144,1,1,True,36,[1],1639593838167:1,2,2,3,1,1.0
432,run1,6180-111bc9d5-f170-42d4-b25b-5a553e7d53f4,9,1639593828609.0,1639593843871.0,1639593864362.0,1639593865649.0,37.04,15.262,21.778,10,10,True,21,"[4, 4, 2]","1639593841524:4,1639593841676:4,1639593842140:2",1,9,11,3,0.3
434,run1,0137-3e1d73a9-6a65-4327-b3c0-11f6af207c24,21,1639593837124.0,1639593847552.0,1639593849221.0,1639593850660.0,13.536,10.428,3.108,12,12,True,57,"[4, 4, 4]","1639593851684:4,1639593852056:4,1639593852477:4",3,13,14,3,0.25
435,run1,8585-9aa44d59-f0bc-469a-9ae3-4c6bca30b069,11,1639593812238.0,1639593849778.0,1639593866056.0,1639593866721.0,54.483,37.54,16.943,16,16,True,30,"[4, 4, 4, 4]","1639593845768:4,1639593846610:4,1639593847744:4,1639593848496:4",2,14,15,4,0.25
436,run1,5157-3d1a9fad-c10e-4a00-8c24-a22868d60b2d,19,1639593843251.0,1639593850850.0,1639593857423.0,1639593858301.0,15.05,7.599,7.451,5,5,True,51,"[1, 3, 1]","1639593723262:1,1639593724249:3,1639593724967:1",2,6,4,3,0.6
437,run1,8777-5775e5ea-92db-40a7-8381-9c5e6b710e24,15,1639593843223.0,1639593851214.0,1639593852867.0,1639593853691.0,10.468,7.991,2.477,5,4,False,24,[4],1639593861612:4,2,3,4,1,0.2
438,run1,0089-84ef8c77-b491-4608-9f6f-f3b5bab1c2d8,8,1639593823911.0,1639593852997.0,1639593867193.0,1639593868461.0,44.55,29.086,15.464,9,9,True,12,"[1, 1, 1, 1, 1, 1, 1, 1, 1]","1639593841846:1,1639593842279:1,1639593842710:1,1639593843134:1,1639593843671:1,1639593844110:1,1639593844654:1,1639593845094:1,1639593845646:1",3,7,8,9,1.0
441,run1,6505-1441f682-c593-4bdf-ba56-86382ce58058,29,1639593849646.0,1639593857635.0,1639593872240.0,1639593873165.0,23.519,7.989,15.53,8,8,True,60,"[1, 1, 1, 1, 1, 1, 1, 1]","1639593852587:1,1639593852991:1,1639593853340:1,1639593855080:1,1639593855898:1,1639593856243:1,1639593856594:1,1639593856861:1",1,7,9,8,1.0
442,run1,0100-0250f292-3528-41a0-9ef3-f871d00ec234,30,1639593852799.0,1639593859497.0,1639593867620.0,1639593868516.0,15.717,6.698,9.019,8,8,True,87,"[4, 4]","1639593858208:4,1639593858343:4",3,9,7,2,0.25
443,run1,2515-ce45844d-b4fd-4433-9d4f-5244bcd8c2b1,24,1639593847597.0,1639593861999.0,1639593866281.0,1639593867290.0,19.693,14.402,5.291,13,13,True,39,[1],1639593861092:1,2,12,14,1,0.07692307692307693
445,run1,0137-3e1d73a9-6a65-4327-b3c0-11f6af207c24,22,1639593852667.0,1639593865450.0,1639593883244.0,1639593884208.0,31.541,12.783,18.758,16,16,True,60,"[4, 4, 4, 4]","1639593869411:4,1639593869701:4,1639593870039:4,1639593870355:4",1,14,15,4,0.25
446,run1,5703-feaef934-e2d6-41af-b26b-aa639096547d,14,1639593860299.0,1639593867893.0,1639593876599.0,1639593877564.0,17.265,7.594,9.671,6,6,True,12,"[1, 1, 1, 1, 1, 1]","1639593891547:1,1639593891947:1,1639593892315:1,1639593892753:1,1639593893161:1,1639593893525:1",1,8,7,6,1.0
447,run1,8185-ce4ab2f7-c672-4523-9431-48840a8f2dd3,8,1639593851380.0,1639593870831.0,1639593876019.0,1639593884099.0,32.719,19.451,13.268,14,15,False,6,[3],1639593867994:3,2,15,13,1,0.07142857142857142
448,run1,5157-3d1a9fad-c10e-4a00-8c24-a22868d60b2d,20,1639593860305.0,1639593870948.0,1639593885236.0,1639593886351.0,26.046,10.643,15.403,10,10,True,54,"[1, 1, 2, 2, 1, 1, 1, 1]","1639593741403:1,1639593741704:1,1639593742893:2,1639593743121:2,1639593744372:1,1639593744605:1,1639593744873:1,1639593745154:1",2,8,9,8,0.8
450,run1,6180-111bc9d5-f170-42d4-b25b-5a553e7d53f4,10,1639593867653.0,1639593873040.0,1639593875379.0,1639593876585.0,8.932,5.387,3.545,2,2,True,24,[2],1639593871412:2,1,1,3,1,0.5
451,run1,2515-ce45844d-b4fd-4433-9d4f-5244bcd8c2b1,25,1639593869295.0,1639593873951.0,1639593876660.0,1639593877792.0,8.497,4.656,3.841,2,2,True,42,[2],1639593872058:2,2,1,3,1,0.5
453,run1,8777-5775e5ea-92db-40a7-8381-9c5e6b710e24,16,1639593855692.0,1639593875897.0,1639593881273.0,1639593882051.0,26.359,20.205,6.154,15,14,False,24,[2],"1639593877008:4,1639593881647:del,1639593886447:2",2,14,16,1,0.06666666666666667
454,run1,7367-2d612f2f-a1f4-4d6b-a5d5-7f54c0c15eac,9,1639593836797.0,1639593876038.0,1639593900187.0,1639593905103.0,68.306,39.241,29.065,14,14,True,21,"[4, 4, 4, 2]","1639593856338:4,1639593856494:4,1639593858296:4,1639593860436:2",1,15,16,4,0.2857142857142857
457,run1,0100-0250f292-3528-41a0-9ef3-f871d00ec234,31,1639593870518.0,1639593881657.0,1639593896037.0,1639593897045.0,26.527,11.139,15.388,14,14,True,90,"[4, 4, 4, 2]","1639593875659:4,1639593875902:4,1639593878070:4,1639593878756:2",3,15,16,4,0.2857142857142857
458,run1,6505-1441f682-c593-4bdf-ba56-86382ce58058,30,1639593875167.0,1639593883956.0,1639593911084.0,1639593911862.0,36.695,8.789,27.906,12,13,False,63,"[1, 1, 1, 2, 1, 3, 2, 1]","1639593878303:1,1639593878638:1,1639593878952:1,1639593879870:2,1639593880352:1,1639593881905:3,1639593882819:2,1639593883215:1",1,14,13,8,0.6666666666666666
459,run1,5703-feaef934-e2d6-41af-b26b-aa639096547d,15,1639593879566.0,1639593886688.0,1639593893747.0,1639593894609.0,15.043,7.122,7.921,5,5,True,15,"[1, 1, 1, 1, 1]","1639593909555:1,1639593910403:1,1639593910912:1,1639593911527:1,1639593911988:1",2,7,6,5,1.0
461,run1,2515-ce45844d-b4fd-4433-9d4f-5244bcd8c2b1,26,1639593879794.0,1639593887992.0,1639593895567.0,1639593896714.0,16.92,8.198,8.722,10,10,True,45,[2],1639593887032:2,2,11,9,1,0.1
462,run1,8585-9aa44d59-f0bc-469a-9ae3-4c6bca30b069,12,1639593868723.0,1639593888178.0,1639593900900.0,1639593901460.0,32.737,19.455,13.282,14,14,True,33,"[4, 4, 4, 2]","1639593884787:4,1639593885306:4,1639593885977:4,1639593886991:2",1,13,12,4,0.2857142857142857
463,run1,6180-111bc9d5-f170-42d4-b25b-5a553e7d53f4,11,1639593878586.0,1639593889547.0,1639593897445.0,1639593902983.0,24.397,10.961,13.436,8,8,True,27,"[4, 4]","1639593887764:4,1639593887908:4",2,6,7,2,0.25
464,run1,8777-5775e5ea-92db-40a7-8381-9c5e6b710e24,17,1639593884054.0,1639593893004.0,1639593898038.0,1639593898891.0,14.837,8.95,5.887,12,12,True,24,[4],1639593903857:4,3,10,11,1,0.08333333333333333
465,run1,0137-3e1d73a9-6a65-4327-b3c0-11f6af207c24,23,1639593886209.0,1639593894184.0,1639593896477.0,1639593897135.0,10.926,7.975,2.951,5,5,True,63,"[3, 2]","1639593895858:4,1639593896403:2,1639593897874:del,1639593898035:del,1639593899010:3,1639593899281:2",3,4,6,2,0.4
467,run1,9405-503c0c48-b1d9-49d8-9da2-86a208ab837c,26,1639593830914.0,1639593900411.0,1639593945489.0,1639593946109.0,115.195,69.497,45.698,15,15,True,75,"[1, 3, 1, 1, 1, 2, 2, 1, 2, 1]","1639593837203:1,1639593838653:3,1639593841663:1,1639593842506:1,1639593843306:1,1639593845318:2,1639593845872:2,1639593847191:1,1639593848141:2,1639593900410:1",3,14,16,10,0.6666666666666666
468,run1,8185-ce4ab2f7-c672-4523-9431-48840a8f2dd3,9,1639593886107.0,1639593900574.0,1639593907899.0,1639593909339.0,23.232,14.467,8.765,6,8,False,6,[1],1639593899366:1,3,8,7,1,0.16666666666666666
469,run1,0137-3e1d73a9-6a65-4327-b3c0-11f6af207c24,24,1639593899136.0,1639593902623.0,1639593904165.0,1639593904695.0,5.559,3.487,2.072,1,1,True,66,[1],1639593907470:1,1,2,3,1,1.0
471,run1,0089-84ef8c77-b491-4608-9f6f-f3b5bab1c2d8,9,1639593870465.0,1639593904224.0,1639593919513.0,1639593920610.0,50.145,33.759,16.386,13,13,True,15,"[1, 1, 1, 1, 1, 1, 1, 1, 1, 1, 1, 1, 1]","1639593894110:1,1639593894463:1,1639593895734:1,1639593896510:1,1639593897174:1,1639593897759:1,1639593898542:1,1639593899014:1,1639593899622:1,1639593900182:1,1639593900727:1,1639593901214:1,1639593901798:1",2,14,12,13,1.0
472,run1,2515-ce45844d-b4fd-4433-9d4f-5244bcd8c2b1,27,1639593898718.0,1639593905512.0,1639593909229.0,1639593910689.0,11.971,6.794,5.177,5,7,False,48,[1],1639593904379:1,3,6,7,1,0.2
473,run1,5703-feaef934-e2d6-41af-b26b-aa639096547d,16,1639593896611.0,1639593906270.0,1639593915610.0,1639593916369.0,19.758,9.659,10.099,7,7,True,18,"[1, 1, 1, 1, 1, 1, 1]","1639593927809:1,1639593928177:1,1639593928586:1,1639593928959:1,1639593929363:1,1639593929788:1,1639593930139:1",3,8,9,7,1.0
474,run1,0100-0250f292-3528-41a0-9ef3-f871d00ec234,32,1639593899047.0,1639593908486.0,1639593920468.0,1639593921101.0,22.054,9.439,12.615,9,9,True,93,"[4, 4, 1]","1639593906751:4,1639593906913:4,1639593907579:1",1,7,8,3,0.3333333333333333
475,run1,8777-5775e5ea-92db-40a7-8381-9c5e6b710e24,18,1639593900896.0,1639593908947.0,1639593910391.0,1639593911073.0,10.177,8.051,2.126,3,3,True,27,[3],1639593919660:3,3,1,2,1,0.3333333333333333
478,run1,7367-2d612f2f-a1f4-4d6b-a5d5-7f54c0c15eac,10,1639593907105.0,1639593911705.0,1639593917807.0,1639593918937.0,11.832,4.6,7.232,1,1,True,24,[1],1639593910312:1,1,3,2,1,1.0
479,run1,5157-3d1a9fad-c10e-4a00-8c24-a22868d60b2d,21,1639593888356.0,1639593912338.0,1639593921528.0,1639593937112.0,48.756,23.982,24.774,11,11,True,57,"[1, 4, 4, 1, 1]","1639593781826:1,1639593782968:4,1639593784204:4,1639593785266:1,1639593786163:1",2,10,9,5,0.45454545454545453
480,run1,0137-3e1d73a9-6a65-4327-b3c0-11f6af207c24,25,1639593906701.0,1639593916343.0,1639593923151.0,1639593923965.0,17.264,9.642,7.622,10,10,True,69,"[4, 4, 2]","1639593920499:4,1639593920867:4,1639593921459:2",3,11,12,3,0.3
481,run1,2515-ce45844d-b4fd-4433-9d4f-5244bcd8c2b1,28,1639593912694.0,1639593919099.0,1639593922701.0,1639593923962.0,11.268,6.405,4.863,4,4,True,48,[4],1639593916555:4,2,3,2,1,0.25
482,run1,8777-5775e5ea-92db-40a7-8381-9c5e6b710e24,19,1639593913075.0,1639593920216.0,1639593925788.0,1639593926635.0,13.56,7.141,6.419,11,11,True,30,[3],1639593931414:3,2,9,10,1,0.09090909090909091
484,run1,6505-1441f682-c593-4bdf-ba56-86382ce58058,31,1639593913864.0,1639593921921.0,1639593947923.0,1639593949493.0,35.629,8.057,27.572,11,11,True,63,"[2, 1, 2, 1, 1, 2, 1, 1]","1639593917461:2,1639593917967:1,1639593918451:2,1639593919058:1,1639593919894:1,1639593920418:2,1639593920997:1,1639593921162:1",2,9,10,8,0.7272727272727273
487,run1,6180-111bc9d5-f170-42d4-b25b-5a553e7d53f4,12,1639593905000.0,1639593928284.0,1639593955747.0,1639593962940.0,57.94,23.284,34.656,12,12,True,30,"[4, 4, 4]","1639593924956:4,1639593925100:4,1639593925677:4",3,11,13,3,0.25
488,run1,8585-9aa44d59-f0bc-469a-9ae3-4c6bca30b069,13,1639593903462.0,1639593929620.0,1639593938233.0,1639593938869.0,35.407,26.158,9.249,15,15,True,36,"[4, 4, 4, 3]","1639593922897:4,1639593923168:4,1639593923469:4,1639593926701:3",2,14,16,4,0.26666666666666666
489,run1,2515-ce45844d-b4fd-4433-9d4f-5244bcd8c2b1,29,1639593925967.0,1639593932363.0,1639593941466.0,1639593942984.0,17.017,6.396,10.621,6,7,False,51,[2],1639593931338:2,3,7,5,1,0.16666666666666666
491,run1,0137-3e1d73a9-6a65-4327-b3c0-11f6af207c24,26,1639593925966.0,1639593938047.0,1639593959531.0,1639593960298.0,34.332,12.081,22.251,13,12,False,72,"[4, 4, 4, 1]","1639593941495:4,1639593941959:4,1639593942217:4,1639593943068:1",2,11,12,4,0.3076923076923077
492,run1,8777-5775e5ea-92db-40a7-8381-9c5e6b710e24,20,1639593928637.0,1639593938448.0,1639593943879.0,1639593944905.0,16.268,9.811,6.457,7,6,False,33,"[3, 3]","1639593948485:3,1639593949157:3",3,8,6,2,0.2857142857142857
493,run1,5703-feaef934-e2d6-41af-b26b-aa639096547d,17,1639593918371.0,1639593939299.0,1639593951511.0,1639593954454.0,36.083,20.928,15.155,14,14,True,21,"[1, 1, 1, 1, 1, 1, 1, 1, 1, 1, 1, 1, 1, 1]","1639593956613:1,1639593957012:1,1639593957422:1,1639593957825:1,1639593958212:1,1639593958617:1,1639593959020:1,1639593959437:1,1639593959839:1,1639593960213:1,1639593960641:1,1639593961105:1,1639593961586:1,1639593961993:1",3,12,13,14,1.0
494,run1,0089-84ef8c77-b491-4608-9f6f-f3b5bab1c2d8,10,1639593922612.0,1639593940057.0,1639593955127.0,1639593956232.0,33.62,17.445,16.175,7,7,True,18,"[1, 1, 1, 1, 1, 1, 1]","1639593933822:1,1639593934150:1,1639593934502:1,1639593935118:1,1639593935542:1,1639593935910:1,1639593936575:1",1,6,8,7,1.0
495,run1,8185-ce4ab2f7-c672-4523-9431-48840a8f2dd3,10,1639593911347.0,1639593940442.0,1639593947310.0,1639593972523.0,61.176,29.095,32.081,7,6,False,6,[3],"1639593928100:2,1639593928803:3,1639593931714:del,1639593932889:del,1639593933532:3",1,8,6,1,0.14285714285714285
498,run1,7367-2d612f2f-a1f4-4d6b-a5d5-7f54c0c15eac,11,1639593920938.0,1639593945645.0,1639593970393.0,1639593986189.0,65.251,24.707,40.544,13,13,True,27,"[4, 4, 4, 1]","1639593942922:4,1639593943062:4,1639593943422:4,1639593944558:1",3,14,15,4,0.3076923076923077
500,run1,5157-3d1a9fad-c10e-4a00-8c24-a22868d60b2d,22,1639593939125.0,1639593950409.0,1639593954633.0,1639593955465.0,16.34,11.284,5.056,3,3,True,60,[3],1639593822229:3,2,4,5,1,0.3333333333333333
501,run1,8585-9aa44d59-f0bc-469a-9ae3-4c6bca30b069,14,1639593940871.0,1639593951866.0,1639593959079.0,1639593959743.0,18.872,10.995,7.877,8,8,True,39,"[4, 4]","1639593947329:4,1639593947463:4",1,9,7,2,0.25
502,run1,9405-503c0c48-b1d9-49d8-9da2-86a208ab837c,27,1639593948114.0,1639593953329.0,1639593954797.0,1639593955437.0,7.323,5.215,2.108,1,1,True,78,[1],1639593953434:1,3,2,3,1,1.0
503,run1,2515-ce45844d-b4fd-4433-9d4f-5244bcd8c2b1,30,1639593944991.0,1639593957591.0,1639593960928.0,1639593961883.0,16.892,12.6,4.292,16,14,False,51,[2],1639593956677:2,1,14,15,1,0.0625
504,run1,6505-1441f682-c593-4bdf-ba56-86382ce58058,32,1639593951499.0,1639593958104.0,1639593962542.0,1639593963560.0,12.061,6.605,5.456,2,2,True,66,[2],1639593956564:2,1,3,4,1,0.5
505,run1,8777-5775e5ea-92db-40a7-8381-9c5e6b710e24,21,1639593946908.0,1639593959657.0,1639593963095.0,1639593963873.0,16.965,12.749,4.216,13,12,False,33,[3],1639593970573:3,3,12,11,1,0.07692307692307693
506,run1,5157-3d1a9fad-c10e-4a00-8c24-a22868d60b2d,23,1639593957470.0,1639593962857.0,1639593964420.0,1639593965223.0,7.753,5.387,2.366,2,2,True,63,[2],1639593837979:2,3,1,3,1,0.5
507,run1,0137-3e1d73a9-6a65-4327-b3c0-11f6af207c24,27,1639593962300.0,1639593968172.0,1639593971056.0,1639593971634.0,9.334,5.872,3.462,3,3,True,72,"[2, 1]","1639593971523:2,1639593972097:1",1,4,2,2,0.6666666666666666
508,run1,2515-ce45844d-b4fd-4433-9d4f-5244bcd8c2b1,31,1639593963886.0,1639593968187.0,1639593971384.0,1639593972751.0,8.865,4.301,4.564,3,3,True,51,[3],1639593967175:3,3,2,4,1,0.3333333333333333
509,run1,8585-9aa44d59-f0bc-469a-9ae3-4c6bca30b069,15,1639593961747.0,1639593968820.0,1639593971743.0,1639593972379.0,10.632,7.073,3.559,4,4,True,42,[4],1639593965714:4,3,3,5,1,0.25
510,run1,9405-503c0c48-b1d9-49d8-9da2-86a208ab837c,28,1639593957439.0,1639593969229.0,1639593979177.0,1639593980465.0,23.026,11.79,11.236,8,8,True,81,"[4, 4]","1639593965096:4,1639593969227:4",2,7,6,2,0.25
511,run1,8777-5775e5ea-92db-40a7-8381-9c5e6b710e24,22,1639593965876.0,1639593971880.0,1639593973551.0,1639593974179.0,8.303,6.004,2.299,2,2,True,33,[2],1639593983019:2,1,1,3,1,0.5
512,run1,6180-111bc9d5-f170-42d4-b25b-5a553e7d53f4,13,1639593964943.0,1639593972953.0,1639593975792.0,1639593978215.0,13.272,8.01,5.262,4,4,True,33,[4],1639593969957:4,1,3,5,1,0.25
513,run1,0137-3e1d73a9-6a65-4327-b3c0-11f6af207c24,28,1639593973635.0,1639593978694.0,1639593981402.0,1639593981889.0,8.254,5.059,3.195,4,4,True,75,"[3, 1]","1639593982478:3,1639593983084:1",1,5,3,2,0.5
514,run1,5703-feaef934-e2d6-41af-b26b-aa639096547d,18,1639593956455.0,1639593979974.0,1639593998750.0,1639594000009.0,43.554,23.519,20.035,16,16,True,24,"[1, 1, 1, 1, 1, 1, 1, 1, 1, 1, 1, 1, 1, 1, 1, 1]","1639593992465:1,1639593992723:1,1639593993117:1,1639593993530:1,1639593993916:1,1639593994352:1,1639593994759:1,1639593995299:1,1639593995745:1,1639593996193:1,1639593996703:1,1639593997183:1,1639593997687:1,1639593998295:1,1639593998780:1,1639593999238:1",3,14,15,16,1.0
515,run1,2515-ce45844d-b4fd-4433-9d4f-5244bcd8c2b1,32,1639593974756.0,1639593982525.0,1639593987486.0,1639593989215.0,14.459,7.769,6.69,8,6,False,54,[2],1639593981569:2,1,6,7,1,0.125
517,run1,6180-111bc9d5-f170-42d4-b25b-5a553e7d53f4,14,1639593980217.0,1639593984176.0,1639593986701.0,1639593987987.0,7.77,3.959,3.811,3,3,True,36,[3],1639593982532:3,2,2,4,1,0.3333333333333333
518,run1,9405-503c0c48-b1d9-49d8-9da2-86a208ab837c,29,1639593982467.0,1639593987411.0,1639593990561.0,1639593991169.0,8.702,4.944,3.758,3,3,True,84,[3],1639593987276:3,2,4,2,1,0.3333333333333333
519,run1,0089-84ef8c77-b491-4608-9f6f-f3b5bab1c2d8,11,1639593958234.0,1639593989747.0,1639594006836.0,1639594007815.0,49.581,31.513,18.068,15,15,True,21,"[1, 1, 1, 1, 1, 1, 1, 1, 1, 1, 1, 1, 1, 1, 1]","1639593981710:1,1639593982062:1,1639593982374:1,1639593983174:1,1639593983502:1,1639593983790:1,1639593984510:1,1639593984846:1,1639593985198:1,1639593986046:1,1639593986478:1,1639593986854:1,1639593987582:1,1639593987942:1,1639593988302:1",1,14,13,15,1.0
520,run1,8777-5775e5ea-92db-40a7-8381-9c5e6b710e24,23,1639593976186.0,1639593990978.0,1639594009767.0,1639594010413.0,34.227,14.792,19.435,9,9,True,36,"[3, 3, 1]","1639593997459:3,1639593998470:3,1639593999857:1",1,10,8,3,0.3333333333333333
521,run1,0137-3e1d73a9-6a65-4327-b3c0-11f6af207c24,29,1639593983890.0,1639593991711.0,1639593993677.0,1639593994240.0,10.35,7.821,2.529,7,7,True,78,"[4, 3]","1639593996132:4,1639593996604:3",1,8,6,2,0.2857142857142857
522,run1,5157-3d1a9fad-c10e-4a00-8c24-a22868d60b2d,24,1639593967226.0,1639593996994.0,1639594005904.0,1639594006924.0,39.698,29.768,9.93,16,15,False,66,"[1, 1, 2, 1, 1, 4, 1, 1, 1, 1, 1]","1639593856400:1,1639593856663:1,1639593858164:2,1639593858746:1,1639593859473:1,1639593863818:4,1639593868551:1,1639593868884:1,1639593870766:1,1639593871023:1,1639593871318:1",1,15,14,11,0.6875
523,run1,8185-ce4ab2f7-c672-4523-9431-48840a8f2dd3,11,1639593974525.0,1639593998139.0,1639594005899.0,1639594008619.0,34.094,23.614,10.48,15,16,False,6,"[3, 2]","1639593994928:3,1639593995677:2",1,14,16,2,0.13333333333333333
524,run1,8585-9aa44d59-f0bc-469a-9ae3-4c6bca30b069,16,1639593974383.0,1639593998757.0,1639594020101.0,1639594020793.0,46.41,24.374,22.036,11,11,True,45,"[4, 4, 3]","1639593982944:4,1639593983370:4,1639593987228:3",3,12,10,3,0.2727272727272727
525,run1,6180-111bc9d5-f170-42d4-b25b-5a553e7d53f4,15,1639593989992.0,1639594000905.0,1639594034491.0,1639594035723.0,45.731,10.913,34.818,9,9,True,39,"[3, 3, 3]","1639593998668:3,1639593998820:3,1639593999117:3",3,10,11,3,0.3333333333333333
526,run1,0137-3e1d73a9-6a65-4327-b3c0-11f6af207c24,30,1639593996247.0,1639594003230.0,1639594005935.0,1639594006560.0,10.313,6.983,3.33,8,8,True,81,"[4, 4]","1639594007886:4,1639594008072:4",2,9,7,2,0.25
527,run1,5703-feaef934-e2d6-41af-b26b-aa639096547d,19,1639594002010.0,1639594005448.0,1639594007006.0,1639594007750.0,5.74,3.438,2.302,1,1,True,27,[1],1639594030644:1,1,2,3,1,1.0
528,run1,7872-dc4737dd-1ad5-415f-b8a5-17e90fa80e3e,1,1639593987008.0,1639594006627.0,1639594073321.0,1639594074281.0,87.273,19.619,67.654,11,13,False,0,"[4, 4, 3]","1639593996551:4,1639593998158:4,1639593999566:3",3,13,12,3,0.2727272727272727
530,run1,9405-503c0c48-b1d9-49d8-9da2-86a208ab837c,30,1639593993171.0,1639594018129.0,1639594025197.0,1639594026285.0,33.114,24.958,8.156,13,13,True,87,"[2, 2, 2, 2, 2, 2, 1]","1639594010858:2,1639594011561:2,1639594012415:2,1639594013214:2,1639594013954:2,1639594014628:2,1639594015696:1",3,12,14,7,0.5384615384615384
531,run1,0089-84ef8c77-b491-4608-9f6f-f3b5bab1c2d8,12,1639594009817.0,1639594018293.0,1639594021971.0,1639594023432.0,13.615,8.476,5.139,4,4,True,24,"[1, 1, 1, 1]","1639594014230:1,1639594014502:1,1639594015022:1,1639594015255:1",1,2,3,4,1.0
532,run1,5157-3d1a9fad-c10e-4a00-8c24-a22868d60b2d,25,1639594008929.0,1639594018479.0,1639594035276.0,1639594037393.0,28.464,9.55,18.914,6,6,True,66,"[1, 1, 3, 1]","1639593889665:1,1639593890004:1,1639593891707:3,1639593892682:1",3,8,7,4,0.6666666666666666
533,run1,0137-3e1d73a9-6a65-4327-b3c0-11f6af207c24,31,1639594008562.0,1639594020559.0,1639594029711.0,1639594030448.0,21.886,11.997,9.889,11,11,True,84,"[4, 4, 3]","1639594021540:4,1639594023290:4,1639594025100:3",2,12,10,3,0.2727272727272727
534,run1,5703-feaef934-e2d6-41af-b26b-aa639096547d,20,1639594009751.0,1639594027191.0,1639594035322.0,1639594036034.0,26.283,17.44,8.843,12,12,True,30,"[1, 1, 1, 1, 1, 1, 1, 1, 1, 1, 1, 1]","1639594043739:1,1639594044130:1,1639594044513:1,1639594044909:1,1639594045276:1,1639594045649:1,1639594046063:1,1639594046448:1,1639594046850:1,1639594047314:1,1639594047737:1,1639594048137:1",2,11,13,12,1.0
535,run1,8585-9aa44d59-f0bc-469a-9ae3-4c6bca30b069,17,1639594022796.0,1639594027656.0,1639594030707.0,1639594031435.0,8.639,4.86,3.779,1,1,True,48,[1],1639594025788:1,2,2,3,1,1.0
536,run1,8777-5775e5ea-92db-40a7-8381-9c5e6b710e24,24,1639594012415.0,1639594027774.0,1639594033111.0,1639594034267.0,21.852,15.359,6.493,6,6,True,39,"[3, 3]","1639594034296:3,1639594035042:3",2,7,8,2,0.3333333333333333
538,run1,7367-2d612f2f-a1f4-4d6b-a5d5-7f54c0c15eac,12,1639593988466.0,1639594031076.0,1639594049272.0,1639594060783.0,72.317,42.61,29.707,15,15,True,30,"[4, 4, 4, 3]","1639594023615:4,1639594023760:4,1639594024269:4,1639594029124:3",3,14,13,4,0.26666666666666666
539,run1,0089-84ef8c77-b491-4608-9f6f-f3b5bab1c2d8,13,1639594025435.0,1639594031619.0,1639594035356.0,1639594039664.0,14.229,6.184,8.045,3,3,True,27,"[1, 1, 1]","1639594028590:1,1639594028838:1,1639594029031:1",1,2,1,3,1.0
541,run1,8185-ce4ab2f7-c672-4523-9431-48840a8f2dd3,12,1639594010628.0,1639594040615.0,1639594065539.0,1639594066419.0,55.791,29.987,25.804,9,11,False,6,[1],1639594039615:1,2,10,11,1,0.1111111111111111
542,run1,6180-111bc9d5-f170-42d4-b25b-5a553e7d53f4,16,1639594037725.0,1639594042577.0,1639594045787.0,1639594047611.0,9.886,4.852,5.034,1,1,True,42,[1],1639594040876:1,1,3,2,1,1.0
543,run1,5703-feaef934-e2d6-41af-b26b-aa639096547d,21,1639594038037.0,1639594043523.0,1639594045099.0,1639594045739.0,7.702,5.486,2.216,3,3,True,33,"[1, 1, 1]","1639594067368:1,1639594067916:1,1639594068320:1",3,2,4,3,1.0
544,run1,8777-5775e5ea-92db-40a7-8381-9c5e6b710e24,25,1639594036269.0,1639594046186.0,1639594057739.0,1639594058561.0,22.292,9.917,12.375,16,15,False,42,[3],1639594056827:3,3,15,14,1,0.0625
545,run1,8585-9aa44d59-f0bc-469a-9ae3-4c6bca30b069,18,1639594033438.0,1639594047433.0,1639594058275.0,1639594058879.0,25.441,13.995,11.446,10,10,True,51,"[4, 4, 2]","1639594041787:4,1639594041935:4,1639594042401:2",2,8,9,3,0.3
546,run1,0137-3e1d73a9-6a65-4327-b3c0-11f6af207c24,32,1639594032449.0,1639594049675.0,1639594083483.0,1639594084133.0,51.684,17.226,34.458,15,15,True,87,"[3, 3, 3, 3, 3]","1639594053300:3,1639594053624:3,1639594053986:3,1639594054370:3,1639594054764:3",1,14,16,5,0.3333333333333333
547,run1,9405-503c0c48-b1d9-49d8-9da2-86a208ab837c,31,1639594028286.0,1639594050061.0,1639594057849.0,1639594058785.0,30.499,21.775,8.724,11,11,True,90,"[3, 3, 3, 2]","1639594035336:3,1639594043390:3,1639594045380:3,1639594047242:2",3,10,12,4,0.36363636363636365
548,run1,5157-3d1a9fad-c10e-4a00-8c24-a22868d60b2d,26,1639594039397.0,1639594057462.0,1639594071966.0,1639594073164.0,33.767,18.065,15.702,14,14,True,69,"[2, 1, 1, 2, 1, 3, 3, 1]","1639593924794:2,1639593925388:1,1639593925746:1,1639593926951:2,1639593928028:1,1639593928828:3,1639593930296:3,1639593930985:1",1,16,15,8,0.5714285714285714
549,run1,6180-111bc9d5-f170-42d4-b25b-5a553e7d53f4,17,1639594049613.0,1639594063714.0,1639594099962.0,1639594101119.0,51.506,14.101,37.405,11,11,True,45,"[4, 4, 2, 1]","1639594059916:4,1639594060043:4,1639594061508:2,1639594061803:1",2,10,9,4,0.36363636363636365
550,run1,0089-84ef8c77-b491-4608-9f6f-f3b5bab1c2d8,14,1639594041667.0,1639594066887.0,1639594093083.0,1639594094316.0,52.649,25.22,27.429,10,10,True,30,"[1, 1, 1, 1, 1, 1, 1, 1, 1, 1]","1639594049671:1,1639594049942:1,1639594050222:1,1639594050534:1,1639594051175:1,1639594052510:1,1639594052798:1,1639594053086:1,1639594053367:1,1639594053670:1",3,9,11,10,1.0
551,run1,5703-feaef934-e2d6-41af-b26b-aa639096547d,22,1639594047741.0,1639594067998.0,1639594113776.0,1639594114978.0,67.237,20.257,46.98,13,13,True,36,"[1, 1, 1, 1, 1, 1, 1, 1, 1, 1, 1, 1, 1]","1639594082622:1,1639594082956:1,1639594083289:1,1639594083672:1,1639594084025:1,1639594084398:1,1639594084767:1,1639594085184:1,1639594085605:1,1639594086052:1,1639594086526:1,1639594086996:1,1639594087443:1",3,14,12,13,1.0
552,run1,8585-9aa44d59-f0bc-469a-9ae3-4c6bca30b069,19,1639594060881.0,1639594071092.0,1639594077121.0,1639594077789.0,16.908,10.211,6.697,6,6,True,54,"[4, 2]","1639594065390:4,1639594065841:2",2,4,5,2,0.3333333333333333
553,run1,8185-ce4ab2f7-c672-4523-9431-48840a8f2dd3,13,1639594068427.0,1639594072671.0,1639594075018.0,1639594076260.0,7.833,4.244,3.589,1,1,True,6,[1],1639594071865:1,2,3,2,1,1.0
554,run1,9405-503c0c48-b1d9-49d8-9da2-86a208ab837c,32,1639594060788.0,1639594073662.0,1639594088373.0,1639594090981.0,30.193,12.874,17.319,14,14,True,93,"[4, 2, 2, 2, 3, 1]","1639594066477:4,1639594069180:2,1639594069843:2,1639594070714:2,1639594072670:3,1639594073864:1",3,13,15,6,0.42857142857142855
555,run1,8777-5775e5ea-92db-40a7-8381-9c5e6b710e24,26,1639594060565.0,1639594081255.0,1639594084929.0,1639594085695.0,25.13,20.69,4.44,8,8,True,42,"[4, 4]","1639594085946:4,1639594086568:4",1,9,7,2,0.25
556,run1,7367-2d612f2f-a1f4-4d6b-a5d5-7f54c0c15eac,13,1639594062824.0,1639594081748.0,1639594087221.0,1639594089099.0,26.275,18.924,7.351,8,8,True,33,"[4, 4]","1639594075348:4,1639594075498:4",1,9,7,2,0.25
557,run1,8185-ce4ab2f7-c672-4523-9431-48840a8f2dd3,14,1639594078267.0,1639594083087.0,1639594093180.0,1639594094379.0,16.112,4.82,11.292,3,3,True,9,[3],1639594082209:3,3,2,1,1,0.3333333333333333
559,run1,8585-9aa44d59-f0bc-469a-9ae3-4c6bca30b069,20,1639594079793.0,1639594095104.0,1639594101259.0,1639594101935.0,22.142,15.311,6.831,7,7,True,57,"[4, 3]","1639594089779:4,1639594090676:3",1,8,9,2,0.2857142857142857
560,run1,7367-2d612f2f-a1f4-4d6b-a5d5-7f54c0c15eac,14,1639594091100.0,1639594097670.0,1639594108799.0,1639594110609.0,19.509,6.57,12.939,3,3,True,36,[3],1639594096816:3,1,1,2,1,0.3333333333333333
561,run1,5157-3d1a9fad-c10e-4a00-8c24-a22868d60b2d,27,1639594075169.0,1639594097841.0,1639594113167.0,1639594113953.0,38.784,22.672,16.112,13,13,True,72,"[1, 1, 2, 2, 2, 2, 3]","1639593967016:1,1639593967511:1,1639593968217:2,1639593968783:2,1639593969864:2,1639593970644:2,1639593971691:3",1,14,15,7,0.5384615384615384
563,run1,7872-dc4737dd-1ad5-415f-b8a5-17e90fa80e3e,2,1639594076285.0,1639594098545.0,1639594116240.0,1639594124107.0,47.822,22.26,25.562,9,10,False,0,"[3, 3, 3]","1639594091223:4,1639594094303:del,1639594096686:3,1639594097031:3,1639594097239:3",1,8,10,3,0.3333333333333333
564,run1,8185-ce4ab2f7-c672-4523-9431-48840a8f2dd3,15,1639594096391.0,1639594104749.0,1639594388099.0,1639594389611.0,293.22,8.358,284.862,8,8,True,12,"[4, 3, 2]","1639594102942:4,1639594103477:3,1639594103853:2",1,9,7,3,0.375
565,run1,0089-84ef8c77-b491-4608-9f6f-f3b5bab1c2d8,15,1639594096317.0,1639594110123.0,1639594116396.0,1639594117566.0,21.249,13.806,7.443,5,5,True,33,"[1, 1, 1, 1, 1]","1639594106382:1,1639594106670:1,1639594107134:1,1639594108070:1,1639594108271:1",2,4,6,5,1.0
566,run1,6180-111bc9d5-f170-42d4-b25b-5a553e7d53f4,18,1639594103124.0,1639594113266.0,1639594131201.0,1639594132403.0,29.279,10.142,19.137,6,6,True,48,"[3, 3]","1639594111277:3,1639594111412:3",2,5,7,2,0.3333333333333333
567,run1,8585-9aa44d59-f0bc-469a-9ae3-4c6bca30b069,21,1639594103939.0,1639594113347.0,1639594116758.0,1639594117342.0,13.403,9.408,3.995,9,9,True,60,"[4, 4, 1]","1639594109054:4,1639594109211:4,1639594109629:1",1,8,10,3,0.3333333333333333
568,run1,7367-2d612f2f-a1f4-4d6b-a5d5-7f54c0c15eac,15,1639594112622.0,1639594119752.0,1639594130787.0,1639594131477.0,18.855,7.13,11.725,2,2,True,39,[2],1639594117194:2,1,4,3,1,0.5
569,run1,0089-84ef8c77-b491-4608-9f6f-f3b5bab1c2d8,16,1639594119570.0,1639594124970.0,1639594128635.0,1639594129794.0,10.224,5.4,4.824,1,1,True,36,[1],1639594123342:1,1,2,3,1,1.0
570,run1,5157-3d1a9fad-c10e-4a00-8c24-a22868d60b2d,28,1639594115954.0,1639594129318.0,1639594141790.0,1639594144889.0,28.935,13.364,15.571,9,9,True,75,"[1, 2, 2, 2, 1, 1]","1639593996107:1,1639594002082:2,1639594002529:2,1639594003176:2,1639594003854:1,1639594004035:1",3,8,10,6,0.6666666666666666
572,run1,8777-5775e5ea-92db-40a7-8381-9c5e6b710e24,27,1639594087701.0,1639594129735.0,1639594139809.0,1639594140673.0,52.972,42.034,10.938,14,14,True,45,"[3, 3, 3, 3, 2]","1639594135569:3,1639594136301:3,1639594137231:3,1639594138465:3,1639594140038:2",2,15,13,5,0.35714285714285715
573,run1,8585-9aa44d59-f0bc-469a-9ae3-4c6bca30b069,22,1639594119343.0,1639594139236.0,1639594145503.0,1639594146634.0,27.291,19.893,7.398,12,12,True,63,"[4, 4, 4]","1639594129604:4,1639594129837:4,1639594130050:4",1,13,14,3,0.25
574,run1,7872-dc4737dd-1ad5-415f-b8a5-17e90fa80e3e,3,1639594126110.0,1639594142049.0,1639594185960.0,1639594187936.0,61.826,15.939,45.887,12,12,True,0,"[4, 4, 4]","1639594135127:4,1639594135374:4,1639594135559:4",2,14,13,3,0.25
575,run1,5703-feaef934-e2d6-41af-b26b-aa639096547d,23,1639594116980.0,1639594142281.0,1639594154841.0,1639594155783.0,38.803,25.301,13.502,11,11,True,39,"[1, 1, 1, 1, 1, 1, 1, 1, 1, 1, 1]","1639594153270:1,1639594153622:1,1639594153966:1,1639594154360:1,1639594154728:1,1639594155096:1,1639594155504:1,1639594155898:1,1639594156297:1,1639594156962:1,1639594157512:1",3,9,10,11,1.0
576,run1,8777-5775e5ea-92db-40a7-8381-9c5e6b710e24,28,1639594142675.0,1639594149077.0,1639594150935.0,1639594151583.0,8.908,6.402,2.506,1,1,True,48,[1],1639594160082:1,1,3,2,1,1.0
577,run1,7367-2d612f2f-a1f4-4d6b-a5d5-7f54c0c15eac,16,1639594133482.0,1639594151032.0,1639594178777.0,1639594179687.0,46.205,17.55,28.655,16,15,False,42,"[3, 3, 3, 3]","1639594149396:3,1639594149574:3,1639594149788:3,1639594150220:3",1,15,14,4,0.25
578,run1,5157-3d1a9fad-c10e-4a00-8c24-a22868d60b2d,29,1639594146893.0,1639594152147.0,1639594154794.0,1639594155516.0,8.623,5.254,3.369,1,1,True,78,[1],1639594025970:1,2,2,3,1,1.0
580,run1,0089-84ef8c77-b491-4608-9f6f-f3b5bab1c2d8,17,1639594131797.0,1639594153835.0,1639594172499.0,1639594173728.0,41.931,22.038,19.893,8,8,True,39,"[1, 1, 1, 1, 1, 1, 1, 1]","1639594148831:1,1639594149206:1,1639594149678:1,1639594150126:1,1639594150982:1,1639594151558:1,1639594152086:1,1639594152526:1",3,7,9,8,1.0
581,run1,6180-111bc9d5-f170-42d4-b25b-5a553e7d53f4,19,1639594134408.0,1639594154568.0,1639594190414.0,1639594191759.0,57.351,20.16,37.191,15,15,True,51,"[4, 4, 4, 3]","1639594149460:4,1639594149924:4,1639594151084:4,1639594152437:3",2,13,14,4,0.26666666666666666
582,run1,5157-3d1a9fad-c10e-4a00-8c24-a22868d60b2d,30,1639594157522.0,1639594166942.0,1639594175997.0,1639594177554.0,20.032,9.42,10.612,8,8,True,81,"[3, 4, 1]","1639594038847:3,1639594040017:4,1639594040808:1",1,7,9,3,0.375
583,run1,8585-9aa44d59-f0bc-469a-9ae3-4c6bca30b069,23,1639594148637.0,1639594167458.0,1639594172935.0,1639594173671.0,25.034,18.821,6.213,13,13,True,66,"[4, 4, 4, 1]","1639594157955:4,1639594158331:4,1639594158704:4,1639594159439:1",2,12,14,4,0.3076923076923077
585,run1,5703-feaef934-e2d6-41af-b26b-aa639096547d,24,1639594157786.0,1639594173770.0,1639594196741.0,1639594197549.0,39.763,15.984,23.779,9,9,True,42,"[1, 1, 1, 1, 1, 1, 1, 1, 1]","1639594191083:1,1639594191536:1,1639594191994:1,1639594192448:1,1639594192902:1,1639594193393:1,1639594193896:1,1639594194546:1,1639594195006:1",3,10,8,9,1.0
586,run1,8777-5775e5ea-92db-40a7-8381-9c5e6b710e24,29,1639594153585.0,1639594175894.0,1639594178925.0,1639594180001.0,26.416,22.309,4.107,10,10,True,51,"[2, 2, 2, 2, 2]","1639594179674:2,1639594180162:2,1639594180658:2,1639594181162:2,1639594181579:2",2,9,11,5,0.5
588,run1,8585-9aa44d59-f0bc-469a-9ae3-4c6bca30b069,24,1639594175673.0,1639594182691.0,1639594187014.0,1639594187719.0,12.046,7.018,5.028,5,5,True,69,"[4, 1]","1639594179424:4,1639594179860:1",1,6,4,2,0.4
589,run1,8777-5775e5ea-92db-40a7-8381-9c5e6b710e24,30,1639594182005.0,1639594195506.0,1639594197229.0,1639594197888.0,15.883,13.501,2.382,4,4,True,54,[4],1639594206883:4,1,6,5,1,0.25
590,run1,8585-9aa44d59-f0bc-469a-9ae3-4c6bca30b069,25,1639594189721.0,1639594197298.0,1639594199899.0,1639594200513.0,10.792,7.577,3.215,3,3,True,72,[3],1639594192415:3,2,4,2,1,0.3333333333333333
592,run1,6180-111bc9d5-f170-42d4-b25b-5a553e7d53f4,20,1639594193763.0,1639594202131.0,1639594208632.0,1639594211885.0,18.122,8.368,9.754,5,5,True,54,"[4, 1]","1639594199829:4,1639594200357:1",3,3,4,2,0.4
593,run1,8585-9aa44d59-f0bc-469a-9ae3-4c6bca30b069,26,1639594202516.0,1639594206350.0,1639594209387.0,1639594210100.0,7.584,3.834,3.75,2,2,True,75,[2],1639594205240:2,1,1,3,1,0.5
594,run1,7872-dc4737dd-1ad5-415f-b8a5-17e90fa80e3e,4,1639594189941.0,1639594207990.0,1639594218351.0,1639594219599.0,29.658,18.049,11.609,10,9,False,3,"[4, 4, 2]","1639594198343:4,1639594198550:4,1639594199206:2",1,8,9,3,0.3
595,run1,5157-3d1a9fad-c10e-4a00-8c24-a22868d60b2d,31,1639594179560.0,1639594208786.0,1639594228701.0,1639594229887.0,50.327,29.226,21.101,15,15,True,84,"[3, 1, 2, 2, 1, 2, 2, 2]","1639594069398:3,1639594070015:1,1639594072072:2,1639594077514:2,1639594078249:1,1639594078864:2,1639594082142:2,1639594082309:2",3,14,16,8,0.5333333333333333
596,run1,7367-2d612f2f-a1f4-4d6b-a5d5-7f54c0c15eac,17,1639594181688.0,1639594209193.0,1639594225463.0,1639594226693.0,45.005,27.505,17.5,11,11,True,42,"[4, 4, 3]","1639594194112:4,1639594194258:4,1639594199596:3",1,9,10,3,0.2727272727272727
597,run1,8777-5775e5ea-92db-40a7-8381-9c5e6b710e24,31,1639594199893.0,1639594209994.0,1639594212533.0,1639594214069.0,14.176,10.101,4.075,5,5,True,57,"[4, 1]","1639594219640:4,1639594221096:1",2,3,4,2,0.4
598,run1,5703-feaef934-e2d6-41af-b26b-aa639096547d,25,1639594199551.0,1639594219128.0,1639594227475.0,1639594229042.0,29.491,19.577,9.914,10,10,True,45,"[1, 1, 1, 1, 1, 1, 1, 1, 1, 1]","1639594232513:1,1639594232929:1,1639594233348:1,1639594233794:1,1639594234251:1,1639594234721:1,1639594235206:1,1639594235706:1,1639594236180:1,1639594236624:1",2,11,9,10,1.0
599,run1,0089-84ef8c77-b491-4608-9f6f-f3b5bab1c2d8,18,1639594175732.0,1639594225643.0,1639594254953.0,1639594256415.0,80.683,49.911,30.772,14,14,True,42,"[1, 1, 1, 1, 1, 1, 1, 1, 1, 1, 1, 1, 1, 1]","1639594193055:1,1639594193446:1,1639594193798:1,1639594194790:1,1639594195326:1,1639594195742:1,1639594196215:1,1639594196622:1,1639594197095:1,1639594197518:1,1639594197942:1,1639594198351:1,1639594198798:1,1639594199239:1",1,15,13,14,1.0
601,run1,6180-111bc9d5-f170-42d4-b25b-5a553e7d53f4,21,1639594213888.0,1639594227408.0,1639594239260.0,1639594244597.0,30.709,13.52,17.189,7,7,True,57,"[4, 3]","1639594225252:4,1639594225732:3",3,8,6,2,0.2857142857142857
602,run1,7872-dc4737dd-1ad5-415f-b8a5-17e90fa80e3e,5,1639594221604.0,1639594232404.0,1639594242750.0,1639594244343.0,22.739,10.8,11.939,4,4,True,3,[4],1639594229463:4,3,6,5,1,0.25
603,run1,8585-9aa44d59-f0bc-469a-9ae3-4c6bca30b069,27,1639594212102.0,1639594233808.0,1639594237927.0,1639594238647.0,26.545,21.706,4.839,16,16,True,78,"[4, 4, 4, 4]","1639594223333:4,1639594223484:4,1639594223982:4,1639594224148:4",2,15,14,4,0.25
604,run1,5703-feaef934-e2d6-41af-b26b-aa639096547d,26,1639594231044.0,1639594244721.0,1639594249875.0,1639594252826.0,21.782,13.677,8.105,8,8,True,48,"[1, 1, 1, 1, 1, 1, 1, 1]","1639594263868:1,1639594264308:1,1639594264805:1,1639594265293:1,1639594265801:1,1639594266336:1,1639594266840:1,1639594267334:1",2,9,7,8,1.0
605,run1,5157-3d1a9fad-c10e-4a00-8c24-a22868d60b2d,32,1639594231892.0,1639594246962.0,1639594255949.0,1639594256746.0,24.854,15.07,9.784,7,7,True,87,"[1, 2, 3, 1]","1639594115007:1,1639594117155:2,1639594118197:3,1639594118728:1",2,8,6,4,0.5714285714285714
606,run1,7872-dc4737dd-1ad5-415f-b8a5-17e90fa80e3e,6,1639594246347.0,1639594251039.0,1639594257183.0,1639594258023.0,11.676,4.692,6.984,3,3,True,6,[3],1639594249655:3,1,2,4,1,0.3333333333333333
607,run1,7367-2d612f2f-a1f4-4d6b-a5d5-7f54c0c15eac,18,1639594228695.0,1639594254138.0,1639594261085.0,1639594263537.0,34.842,25.443,9.399,5,5,True,45,"[4, 1]","1639594251721:4,1639594252200:1",1,6,4,2,0.4
608,run1,8585-9aa44d59-f0bc-469a-9ae3-4c6bca30b069,28,1639594240651.0,1639594260340.0,1639594271396.0,1639594272073.0,31.422,19.689,11.733,14,15,False,81,"[4, 4, 4, 2]","1639594249661:4,1639594249806:4,1639594249957:4,1639594250518:2",3,16,15,4,0.2857142857142857
609,run1,5703-feaef934-e2d6-41af-b26b-aa639096547d,27,1639594254827.0,1639594263143.0,1639594266216.0,1639594266834.0,12.007,8.316,3.691,4,4,True,51,"[1, 1, 1, 1]","1639594285028:1,1639594285572:1,1639594286132:1,1639594286632:1",2,5,3,4,1.0
610,run1,6180-111bc9d5-f170-42d4-b25b-5a553e7d53f4,22,1639594246600.0,1639594267436.0,1639594295298.0,1639594304028.0,57.428,20.836,36.592,16,16,True,60,"[4, 4, 4, 4]","1639594260700:4,1639594261580:4,1639594263332:4,1639594263628:4",2,14,15,4,0.25
611,run1,8777-5775e5ea-92db-40a7-8381-9c5e6b710e24,32,1639594216075.0,1639594268817.0,1639594272449.0,1639594273249.0,57.174,52.742,4.432,15,15,True,60,"[3, 3, 3, 3, 3]","1639594262505:3,1639594264243:del,1639594276311:3,1639594276866:3,1639594277518:3,1639594278825:3,1639594280203:3",2,14,16,5,0.3333333333333333
612,run1,7872-dc4737dd-1ad5-415f-b8a5-17e90fa80e3e,7,1639594260028.0,1639594271459.0,1639594281647.0,1639594282711.0,22.683,11.431,11.252,8,8,True,9,"[4, 4]","1639594265822:4,1639594265958:4",3,7,9,2,0.25
613,run1,5703-feaef934-e2d6-41af-b26b-aa639096547d,28,1639594268837.0,1639594273365.0,1639594274934.0,1639594275607.0,6.77,4.528,2.242,2,2,True,54,"[1, 1]","1639594298420:1,1639594298808:1",2,1,3,2,1.0
614,run1,7367-2d612f2f-a1f4-4d6b-a5d5-7f54c0c15eac,19,1639594265544.0,1639594277035.0,1639594286620.0,1639594291618.0,26.074,11.491,14.583,9,9,True,48,"[4, 4, 1]","1639594275561:4,1639594275703:4,1639594276263:1",1,8,10,3,0.3333333333333333
615,run1,0089-84ef8c77-b491-4608-9f6f-f3b5bab1c2d8,19,1639594258417.0,1639594286562.0,1639594309190.0,1639594310445.0,52.028,28.145,23.883,11,11,True,45,"[1, 1, 1, 1, 1, 1, 1, 1, 1, 1, 1]","1639594268415:1,1639594268783:1,1639594269606:1,1639594269982:1,1639594270582:1,1639594271086:1,1639594271711:1,1639594272118:1,1639594272702:1,1639594273174:1,1639594273654:1",1,12,10,11,1.0
617,run1,5703-feaef934-e2d6-41af-b26b-aa639096547d,29,1639594277608.0,1639594300110.0,1639594315834.0,1639594316720.0,39.112,22.502,16.61,15,15,True,57,"[1, 1, 1, 1, 1, 1, 1, 1, 1, 1, 1, 1, 1, 1, 1]","1639594313427:1,1639594313728:1,1639594314086:1,1639594314490:1,1639594314918:1,1639594315342:1,1639594315770:1,1639594316190:1,1639594316604:1,1639594317036:1,1639594317486:1,1639594317920:1,1639594318394:1,1639594318895:1,1639594319327:1",3,14,16,15,1.0
618,run1,7872-dc4737dd-1ad5-415f-b8a5-17e90fa80e3e,8,1639594284715.0,1639594305657.0,1639594318406.0,1639594324110.0,39.395,20.942,18.453,14,14,True,12,"[4, 4, 4, 2]","1639594294223:4,1639594294422:4,1639594295750:4,1639594296470:2",3,12,13,4,0.2857142857142857
620,run1,8585-9aa44d59-f0bc-469a-9ae3-4c6bca30b069,29,1639594274075.0,1639594310858.0,1639594333014.0,1639594333775.0,59.7,36.783,22.917,15,15,True,81,"[4, 4, 4, 3]","1639594295202:4,1639594295555:4,1639594295878:4,1639594297926:3",2,16,14,4,0.26666666666666666
621,run1,7367-2d612f2f-a1f4-4d6b-a5d5-7f54c0c15eac,20,1639594293619.0,1639594311014.0,1639594335741.0,1639594340178.0,46.559,17.395,29.164,12,12,True,51,"[4, 4, 4]","1639594304042:4,1639594304176:4,1639594304467:4",3,14,13,3,0.25
622,run1,6180-111bc9d5-f170-42d4-b25b-5a553e7d53f4,23,1639594306029.0,1639594322682.0,1639594363629.0,1639594372868.0,66.839,16.653,50.186,14,14,True,63,"[4, 4, 4, 2]","1639594318557:4,1639594318844:4,1639594320012:4,1639594321157:2",1,13,12,4,0.2857142857142857
625,run1,5703-feaef934-e2d6-41af-b26b-aa639096547d,30,1639594318722.0,1639594330775.0,1639594337639.0,1639594338518.0,19.796,12.053,7.743,6,6,True,60,"[1, 1, 1, 1, 1, 1]","1639594349353:1,1639594349847:1,1639594350256:1,1639594350832:1,1639594351360:1,1639594351828:1",2,5,7,6,1.0
626,run1,8585-9aa44d59-f0bc-469a-9ae3-4c6bca30b069,30,1639594335779.0,1639594341698.0,1639594351442.0,1639594352099.0,16.32,5.919,10.401,8,8,True,84,"[4, 4]","1639594340573:4,1639594340739:4",3,7,9,2,0.25
627,run1,7872-dc4737dd-1ad5-415f-b8a5-17e90fa80e3e,9,1639594326116.0,1639594346858.0,1639594372878.0,1639594374142.0,48.026,20.742,27.284,15,15,True,15,"[4, 4, 4, 3]","1639594335295:4,1639594335517:4,1639594336654:4,1639594337814:3",1,13,14,4,0.26666666666666666
628,run1,0089-84ef8c77-b491-4608-9f6f-f3b5bab1c2d8,20,1639594312447.0,1639594349159.0,1639594369800.0,1639594370837.0,58.39,36.712,21.678,12,12,True,48,"[1, 1, 1, 1, 1, 1, 1, 1, 1, 1, 1, 1]","1639594343079:1,1639594343366:1,1639594343774:1,1639594344079:1,1639594344558:1,1639594344982:1,1639594345454:1,1639594345830:1,1639594346302:1,1639594346694:1,1639594347134:1,1639594347574:1",2,11,10,12,1.0
629,run1,5703-feaef934-e2d6-41af-b26b-aa639096547d,31,1639594340520.0,1639594349965.0,1639594354619.0,1639594355338.0,14.818,9.445,5.373,5,5,True,63,"[1, 1, 1, 1, 1]","1639594371422:1,1639594371849:1,1639594372283:1,1639594372727:1,1639594373125:1",3,6,4,5,1.0
630,run1,7367-2d612f2f-a1f4-4d6b-a5d5-7f54c0c15eac,21,1639594342179.0,1639594354322.0,1639594369763.0,1639594370867.0,28.688,12.143,16.545,10,10,True,54,"[4, 4, 2]","1639594349347:4,1639594349503:4,1639594350333:2",3,9,11,3,0.3
632,run1,8585-9aa44d59-f0bc-469a-9ae3-4c6bca30b069,31,1639594354102.0,1639594359964.0,1639594363610.0,1639594365311.0,11.209,5.862,5.347,4,4,True,87,[4],1639594359129:4,2,3,2,1,0.25
633,run1,5703-feaef934-e2d6-41af-b26b-aa639096547d,32,1639594357341.0,1639594373236.0,1639594377624.0,1639594378327.0,20.986,15.895,5.091,7,7,True,66,"[1, 1, 1, 1, 1, 1, 1]","1639594390934:1,1639594391317:1,1639594391705:1,1639594392099:1,1639594392513:1,1639594392905:1,1639594393285:1",2,5,6,7,1.0
636,run1,8585-9aa44d59-f0bc-469a-9ae3-4c6bca30b069,32,1639594367314.0,1639594383285.0,1639594393106.0,1639594393838.0,26.524,15.971,10.553,11,11,True,90,"[4, 4, 3]","1639594379006:4,1639594379150:4,1639594379397:3",3,10,12,3,0.2727272727272727
637,run1,7367-2d612f2f-a1f4-4d6b-a5d5-7f54c0c15eac,22,1639594372871.0,1639594384470.0,1639594401175.0,1639594401286.0,28.415,11.599,16.816,7,7,True,57,"[4, 3]","1639594379370:4,1639594379642:3",2,6,5,2,0.2857142857142857
638,run1,7872-dc4737dd-1ad5-415f-b8a5-17e90fa80e3e,10,1639594376147.0,1639594393067.0,1639594411749.0,1639594413853.0,37.706,16.92,20.786,13,13,True,18,"[4, 4, 4, 1]","1639594385366:4,1639594385606:4,1639594385831:4,1639594386726:1",2,14,15,4,0.3076923076923077
639,run1,8185-ce4ab2f7-c672-4523-9431-48840a8f2dd3,16,1639594391619.0,1639594402705.0,1639594448258.0,1639594450659.0,59.04,11.086,47.954,12,12,True,15,"[4, 4, 4]","1639594400416:4,1639594400784:4,1639594401175:4",3,11,13,3,0.25
641,run1,6180-111bc9d5-f170-42d4-b25b-5a553e7d53f4,24,1639594374873.0,1639594405898.0,1639594438109.0,1639594444704.0,69.831,31.025,38.806,13,13,True,66,"[4, 4, 4, 1]","1639594400012:4,1639594400276:4,1639594402508:4,1639594403996:1",2,14,15,4,0.3076923076923077
642,run1,0089-84ef8c77-b491-4608-9f6f-f3b5bab1c2d8,21,1639594372840.0,1639594406407.0,1639594425355.0,1639594427189.0,54.349,33.567,20.782,16,16,True,51,"[1, 1, 1, 1, 1, 1, 1, 1, 1, 1, 1, 1, 1, 1, 1, 1]","1639594385502:1,1639594385926:1,1639594386326:1,1639594386711:1,1639594387102:1,1639594387495:1,1639594387902:1,1639594388270:1,1639594388726:1,1639594389126:1,1639594389494:1,1639594389870:1,1639594390302:1,1639594390686:1,1639594391126:1,1639594391519:1",2,14,15,16,1.0
643,run1,7367-2d612f2f-a1f4-4d6b-a5d5-7f54c0c15eac,23,1639594403287.0,1639594412852.0,1639594417175.0,1639594419185.0,15.898,9.565,6.333,6,6,True,60,"[4, 2]","1639594408546:4,1639594409132:2",2,7,8,2,0.3333333333333333
646,run1,7872-dc4737dd-1ad5-415f-b8a5-17e90fa80e3e,11,1639594415858.0,1639594425310.0,1639594430436.0,1639594431565.0,15.707,9.452,6.255,5,5,True,21,"[4, 1]","1639594421559:4,1639594422158:1",1,6,4,2,0.4
647,run1,7367-2d612f2f-a1f4-4d6b-a5d5-7f54c0c15eac,24,1639594421187.0,1639594429712.0,1639594442516.0,1639594443606.0,22.419,8.525,13.894,4,4,True,63,[4],1639594428569:4,3,5,6,1,0.25
